{"resourceType":"Bundle","id":"CMS506FHIRSafeUseofOpioids-bundle","type":"transaction","timestamp":"2025-07-09T09:47:58.500-06:00","entry":[{"resource":{"resourceType":"Library","id":"CMS506FHIRSafeUseofOpioids","meta":{"profile":["http://hl7.org/fhir/uv/crmi/StructureDefinition/crmi-shareablelibrary","http://hl7.org/fhir/uv/crmi/StructureDefinition/crmi-computablelibrary","http://hl7.org/fhir/uv/crmi/StructureDefinition/crmi-publishablelibrary","http://hl7.org/fhir/uv/crmi/StructureDefinition/crmi-executablelibrary","http://hl7.org/fhir/uv/cql/StructureDefinition/cql-library","http://hl7.org/fhir/uv/cql/StructureDefinition/elm-json-library","http://hl7.org/fhir/uv/cql/StructureDefinition/elm-xml-library"]},"language":"en","text":{"status":"extensions","div":"<div xmlns=\"http://www.w3.org/1999/xhtml\" class=\"col-12\">\n  <table class=\"narrative-table\">\n    <tbody>\n<tr>\n\n<th colspan=\"2\" scope=\"row\" class=\"row-header\">Knowledge Artifact Metadata</th>\n\n</tr>\n\n<tr>\n\n<th scope=\"row\" class=\"row-header\">Name (machine-readable)</th>\n\n<td class=\"content-container\">CMS506FHIRSafeUseofOpioids</td>\n</tr>\n\n\n<tr>\n\n<th scope=\"row\" class=\"row-header\">Title (human-readable)</th>\n\n<td class=\"content-container\">CMS506FHIRSafeUseofOpioids</td>\n</tr>\n\n\n\n<tr>\n\n<th scope=\"row\" class=\"row-header\">Status</th>\n\n<td class=\"content-container\">active</td>\n</tr>\n\n\n<tr>\n\n<th scope=\"row\" class=\"row-header\">Experimental</th>\n\n<td class=\"content-container\">false</td>\n</tr>\n\n\n<tr>\n\n<th scope=\"row\" class=\"row-header\">Description</th>\n\n<td class=\"content-container\">CMS506FHIRSafeUseofOpioids</td>\n</tr>\n\n\n\n\n\n\n\n\n\n\n\n\n\n\n<tr>\n\n<th scope=\"row\" class=\"row-header\">Library Steward</th>\n\n<td class=\"content-container\">Centers for Medicare &amp; Medicaid Services (CMS)</td>\n</tr>\n\n\n\n\n\n\n\n\n<tr>\n  \n  \n  \n  \n  \n<th scope=\"row\" class=\"row-header\">Dependency</th>\n\n  \n  <td class=\"content-container\">\n    \n    <em>Description</em>: Library SDE\n    \n    <br/>\n    \n    \n    \n    \n    \n    \n    <em>Resource</em>: https://madie.cms.gov/Library/SupplementalDataElements|5.1.000\n    <br/>\n    <em>Canonical URL</em>: <tt>https://madie.cms.gov/Library/SupplementalDataElements|5.1.000</tt>\n    \n  </td>\n</tr>\n\n<tr>\n  \n  \n  \n  \n  \n<th scope=\"row\" class=\"row-header\">Dependency</th>\n\n  \n  <td class=\"content-container\">\n    \n    <em>Description</em>: Library CQMCommon\n    \n    <br/>\n    \n    \n    \n    \n    \n    \n    <em>Resource</em>: https://madie.cms.gov/Library/CQMCommon|4.1.000\n    <br/>\n    <em>Canonical URL</em>: <tt>https://madie.cms.gov/Library/CQMCommon|4.1.000</tt>\n    \n  </td>\n</tr>\n\n<tr>\n  \n  \n  \n  \n  \n<th scope=\"row\" class=\"row-header\">Dependency</th>\n\n  \n  <td class=\"content-container\">\n    \n    <em>Description</em>: Library FHIRHelpers\n    \n    <br/>\n    \n    \n    \n    \n    \n    \n    <em>Resource</em>: https://madie.cms.gov/Library/FHIRHelpers|4.4.000\n    <br/>\n    <em>Canonical URL</em>: <tt>https://madie.cms.gov/Library/FHIRHelpers|4.4.000</tt>\n    \n  </td>\n</tr>\n\n<tr>\n  \n  \n  \n  \n  \n<th scope=\"row\" class=\"row-header\">Dependency</th>\n\n  \n  <td class=\"content-container\">\n    \n    <em>Description</em>: Library QICoreCommon\n    \n    <br/>\n    \n    \n    \n    \n    \n    \n    <em>Resource</em>: https://madie.cms.gov/Library/QICoreCommon|4.0.000\n    <br/>\n    <em>Canonical URL</em>: <tt>https://madie.cms.gov/Library/QICoreCommon|4.0.000</tt>\n    \n  </td>\n</tr>\n\n<tr>\n  \n  \n  \n  \n  \n<th scope=\"row\" class=\"row-header\">Dependency</th>\n\n  \n  <td class=\"content-container\">\n    \n    <em>Description</em>: Value set Schedule II, III and IV Opioid Medications\n    \n    <br/>\n    \n    \n    \n    \n    \n    \n    <em>Resource</em>: http://cts.nlm.nih.gov/fhir/ValueSet/2.16.840.1.113762.1.4.1046.241\n    <br/>\n    <em>Canonical URL</em>: <tt>http://cts.nlm.nih.gov/fhir/ValueSet/2.16.840.1.113762.1.4.1046.241</tt>\n    \n  </td>\n</tr>\n\n<tr>\n  \n  \n  \n  \n  \n<th scope=\"row\" class=\"row-header\">Dependency</th>\n\n  \n  <td class=\"content-container\">\n    \n    <em>Description</em>: Value set Schedule IV Benzodiazepines\n    \n    <br/>\n    \n    \n    \n    \n    \n    \n    <em>Resource</em>: http://cts.nlm.nih.gov/fhir/ValueSet/2.16.840.1.113762.1.4.1125.1\n    <br/>\n    <em>Canonical URL</em>: <tt>http://cts.nlm.nih.gov/fhir/ValueSet/2.16.840.1.113762.1.4.1125.1</tt>\n    \n  </td>\n</tr>\n\n<tr>\n  \n  \n  \n  \n  \n<th scope=\"row\" class=\"row-header\">Dependency</th>\n\n  \n  <td class=\"content-container\">\n    \n    <em>Description</em>: Value set Cancer Related Pain\n    \n    <br/>\n    \n    \n    \n    \n    \n    \n    <em>Resource</em>: http://cts.nlm.nih.gov/fhir/ValueSet/2.16.840.1.113762.1.4.1111.180\n    <br/>\n    <em>Canonical URL</em>: <tt>http://cts.nlm.nih.gov/fhir/ValueSet/2.16.840.1.113762.1.4.1111.180</tt>\n    \n  </td>\n</tr>\n\n<tr>\n  \n  \n  \n  \n  \n<th scope=\"row\" class=\"row-header\">Dependency</th>\n\n  \n  <td class=\"content-container\">\n    \n    <em>Description</em>: Value set Sickle Cell Disease with and without Crisis\n    \n    <br/>\n    \n    \n    \n    \n    \n    \n    <em>Resource</em>: http://cts.nlm.nih.gov/fhir/ValueSet/2.16.840.1.113762.1.4.1111.175\n    <br/>\n    <em>Canonical URL</em>: <tt>http://cts.nlm.nih.gov/fhir/ValueSet/2.16.840.1.113762.1.4.1111.175</tt>\n    \n  </td>\n</tr>\n\n<tr>\n  \n  \n  \n  \n  \n<th scope=\"row\" class=\"row-header\">Dependency</th>\n\n  \n  <td class=\"content-container\">\n    \n    <em>Description</em>: Value set Medications for Opioid Use Disorder (MOUD)\n    \n    <br/>\n    \n    \n    \n    \n    \n    \n    <em>Resource</em>: http://cts.nlm.nih.gov/fhir/ValueSet/2.16.840.1.113762.1.4.1046.269\n    <br/>\n    <em>Canonical URL</em>: <tt>http://cts.nlm.nih.gov/fhir/ValueSet/2.16.840.1.113762.1.4.1046.269</tt>\n    \n  </td>\n</tr>\n\n<tr>\n  \n  \n  \n  \n  \n<th scope=\"row\" class=\"row-header\">Dependency</th>\n\n  \n  <td class=\"content-container\">\n    \n    <em>Description</em>: Value set Opioid Medication Assisted Treatment (MAT)\n    \n    <br/>\n    \n    \n    \n    \n    \n    \n    <em>Resource</em>: http://cts.nlm.nih.gov/fhir/ValueSet/2.16.840.1.113762.1.4.1111.177\n    <br/>\n    <em>Canonical URL</em>: <tt>http://cts.nlm.nih.gov/fhir/ValueSet/2.16.840.1.113762.1.4.1111.177</tt>\n    \n  </td>\n</tr>\n\n<tr>\n  \n  \n  \n  \n  \n<th scope=\"row\" class=\"row-header\">Dependency</th>\n\n  \n  <td class=\"content-container\">\n    \n    <em>Description</em>: Value set Opioid Use Disorder\n    \n    <br/>\n    \n    \n    \n    \n    \n    \n    <em>Resource</em>: http://cts.nlm.nih.gov/fhir/ValueSet/2.16.840.1.113762.1.4.1111.171\n    <br/>\n    <em>Canonical URL</em>: <tt>http://cts.nlm.nih.gov/fhir/ValueSet/2.16.840.1.113762.1.4.1111.171</tt>\n    \n  </td>\n</tr>\n\n<tr>\n  \n  \n  \n  \n  \n<th scope=\"row\" class=\"row-header\">Dependency</th>\n\n  \n  <td class=\"content-container\">\n    \n    <em>Description</em>: Value set Palliative or Hospice Care\n    \n    <br/>\n    \n    \n    \n    \n    \n    \n    <em>Resource</em>: http://cts.nlm.nih.gov/fhir/ValueSet/2.16.840.1.113883.3.600.1.1579\n    <br/>\n    <em>Canonical URL</em>: <tt>http://cts.nlm.nih.gov/fhir/ValueSet/2.16.840.1.113883.3.600.1.1579</tt>\n    \n  </td>\n</tr>\n\n<tr>\n  \n  \n  \n  \n  \n<th scope=\"row\" class=\"row-header\">Dependency</th>\n\n  \n  <td class=\"content-container\">\n    \n    <em>Description</em>: Value set Discharge To Acute Care Facility\n    \n    <br/>\n    \n    \n    \n    \n    \n    \n    <em>Resource</em>: http://cts.nlm.nih.gov/fhir/ValueSet/2.16.840.1.113883.3.117.1.7.1.87\n    <br/>\n    <em>Canonical URL</em>: <tt>http://cts.nlm.nih.gov/fhir/ValueSet/2.16.840.1.113883.3.117.1.7.1.87</tt>\n    \n  </td>\n</tr>\n\n<tr>\n  \n  \n  \n  \n  \n<th scope=\"row\" class=\"row-header\">Dependency</th>\n\n  \n  <td class=\"content-container\">\n    \n    <em>Description</em>: Value set Hospice Care Referral or Admission\n    \n    <br/>\n    \n    \n    \n    \n    \n    \n    <em>Resource</em>: http://cts.nlm.nih.gov/fhir/ValueSet/2.16.840.1.113762.1.4.1116.365\n    <br/>\n    <em>Canonical URL</em>: <tt>http://cts.nlm.nih.gov/fhir/ValueSet/2.16.840.1.113762.1.4.1116.365</tt>\n    \n  </td>\n</tr>\n\n<tr>\n  \n  \n  \n  \n  \n<th scope=\"row\" class=\"row-header\">Dependency</th>\n\n  \n  <td class=\"content-container\">\n    \n    <em>Description</em>: Value set Patient Expired\n    \n    <br/>\n    \n    \n    \n    \n    \n    \n    <em>Resource</em>: http://cts.nlm.nih.gov/fhir/ValueSet/2.16.840.1.113883.3.117.1.7.1.309\n    <br/>\n    <em>Canonical URL</em>: <tt>http://cts.nlm.nih.gov/fhir/ValueSet/2.16.840.1.113883.3.117.1.7.1.309</tt>\n    \n  </td>\n</tr>\n\n<tr>\n  \n  \n  \n  \n  \n<th scope=\"row\" class=\"row-header\">Dependency</th>\n\n  \n  <td class=\"content-container\">\n    \n    <em>Description</em>: Value set Left Against Medical Advice\n    \n    <br/>\n    \n    \n    \n    \n    \n    \n    <em>Resource</em>: http://cts.nlm.nih.gov/fhir/ValueSet/2.16.840.1.113883.3.117.1.7.1.308\n    <br/>\n    <em>Canonical URL</em>: <tt>http://cts.nlm.nih.gov/fhir/ValueSet/2.16.840.1.113883.3.117.1.7.1.308</tt>\n    \n  </td>\n</tr>\n\n\n\n\n\n\n\n\n\n\n<tr>\n\n<th colspan=\"2\" scope=\"row\" class=\"row-header\">Library Metadata</th>\n\n</tr>\n\n<tr>\n\n<th scope=\"row\" class=\"row-header\">Identifier</th>\n\n<td class=\"content-container\">org.hl7.fhir.r5.model.Identifier@4f42a513</td>\n</tr>\n\n\n<tr>\n\n<th scope=\"row\" class=\"row-header\">Version Number</th>\n\n<td class=\"content-container\">0.3.007</td>\n</tr>\n\n\n<tr>\n\n<th scope=\"row\" class=\"row-header\">Library Type</th>\n\n<td class=\"content-container\">[http://terminology.hl7.org/CodeSystem/library-type#logic-library]</td>\n</tr>\n\n\n\n\n<tr>\n  <th scope=\"row\" class=\"row-header\">Data Requirement</th>\n  <td class=\"content-container\">\n    <em>Type</em>: MedicationRequest\n    <br/>\n  \n    <em>Profile(s)</em>: \n  \n    http://hl7.org/fhir/us/qicore/StructureDefinition/qicore-medicationrequest\n    <br/>        \n  \n   \n   \n    <em>Must Support Elements</em>: medication, status, status.value, intent, intent.value, authoredOn, authoredOn.value\n    <br/>\n   \n  \n    <em>Code Filter(s)</em>: \n    <br/>\n  \n  \n    <span class=\"tab-one\"><em>Path</em>: medication</span>\n    <br/>\n  \n  \n  \n    <span class=\"tab-one\"><em>ValueSet</em>:</span> http://cts.nlm.nih.gov/fhir/ValueSet/2.16.840.1.113762.1.4.1046.241\n    <br/> \n  \n  \n  \n   \n  </td>\n</tr>\n\n<tr>\n  <th scope=\"row\" class=\"row-header\">Data Requirement</th>\n  <td class=\"content-container\">\n    <em>Type</em>: MedicationRequest\n    <br/>\n  \n    <em>Profile(s)</em>: \n  \n    http://hl7.org/fhir/us/qicore/StructureDefinition/qicore-medicationrequest\n    <br/>        \n  \n   \n   \n    <em>Must Support Elements</em>: medication, status, status.value, intent, intent.value, authoredOn, authoredOn.value\n    <br/>\n   \n  \n    <em>Code Filter(s)</em>: \n    <br/>\n  \n  \n    <span class=\"tab-one\"><em>Path</em>: medication</span>\n    <br/>\n  \n  \n  \n    <span class=\"tab-one\"><em>ValueSet</em>:</span> http://cts.nlm.nih.gov/fhir/ValueSet/2.16.840.1.113762.1.4.1125.1\n    <br/> \n  \n  \n  \n   \n  </td>\n</tr>\n\n<tr>\n  <th scope=\"row\" class=\"row-header\">Data Requirement</th>\n  <td class=\"content-container\">\n    <em>Type</em>: MedicationRequest\n    <br/>\n  \n    <em>Profile(s)</em>: \n  \n    http://hl7.org/fhir/us/qicore/StructureDefinition/qicore-medicationrequest\n    <br/>        \n  \n   \n   \n    <em>Must Support Elements</em>: medication, status, status.value, intent, intent.value, authoredOn, authoredOn.value\n    <br/>\n   \n  \n    <em>Code Filter(s)</em>: \n    <br/>\n  \n  \n    <span class=\"tab-one\"><em>Path</em>: medication</span>\n    <br/>\n  \n  \n  \n    <span class=\"tab-one\"><em>ValueSet</em>:</span> http://cts.nlm.nih.gov/fhir/ValueSet/2.16.840.1.113762.1.4.1046.269\n    <br/> \n  \n  \n  \n   \n  </td>\n</tr>\n\n<tr>\n  <th scope=\"row\" class=\"row-header\">Data Requirement</th>\n  <td class=\"content-container\">\n    <em>Type</em>: MedicationRequest\n    <br/>\n  \n    <em>Profile(s)</em>: \n  \n    http://hl7.org/fhir/us/qicore/StructureDefinition/qicore-medicationrequest\n    <br/>        \n  \n   \n   \n    <em>Must Support Elements</em>: medication.reference.value, status, status.value, intent, intent.value, authoredOn, authoredOn.value, medication\n    <br/>\n   \n   \n  </td>\n</tr>\n\n<tr>\n  <th scope=\"row\" class=\"row-header\">Data Requirement</th>\n  <td class=\"content-container\">\n    <em>Type</em>: Medication\n    <br/>\n  \n    <em>Profile(s)</em>: \n  \n    http://hl7.org/fhir/us/qicore/StructureDefinition/qicore-medication\n    <br/>        \n  \n   \n   \n    <em>Must Support Elements</em>: id.value, code\n    <br/>\n   \n   \n  </td>\n</tr>\n\n<tr>\n  <th scope=\"row\" class=\"row-header\">Data Requirement</th>\n  <td class=\"content-container\">\n    <em>Type</em>: Condition\n    <br/>\n  \n    <em>Profile(s)</em>: \n  \n    http://hl7.org/fhir/us/qicore/StructureDefinition/qicore-condition-problems-health-concerns\n    <br/>        \n  \n   \n   \n    <em>Must Support Elements</em>: code, verificationStatus\n    <br/>\n   \n  \n    <em>Code Filter(s)</em>: \n    <br/>\n  \n  \n    <span class=\"tab-one\"><em>Path</em>: code</span>\n    <br/>\n  \n  \n  \n    <span class=\"tab-one\"><em>ValueSet</em>:</span> http://cts.nlm.nih.gov/fhir/ValueSet/2.16.840.1.113762.1.4.1111.180\n    <br/> \n  \n  \n  \n   \n  </td>\n</tr>\n\n<tr>\n  <th scope=\"row\" class=\"row-header\">Data Requirement</th>\n  <td class=\"content-container\">\n    <em>Type</em>: Condition\n    <br/>\n  \n    <em>Profile(s)</em>: \n  \n    http://hl7.org/fhir/us/qicore/StructureDefinition/qicore-condition-problems-health-concerns\n    <br/>        \n  \n   \n   \n    <em>Must Support Elements</em>: code, verificationStatus\n    <br/>\n   \n  \n    <em>Code Filter(s)</em>: \n    <br/>\n  \n  \n    <span class=\"tab-one\"><em>Path</em>: code</span>\n    <br/>\n  \n  \n  \n    <span class=\"tab-one\"><em>ValueSet</em>:</span> http://cts.nlm.nih.gov/fhir/ValueSet/2.16.840.1.113762.1.4.1111.175\n    <br/> \n  \n  \n  \n   \n  </td>\n</tr>\n\n<tr>\n  <th scope=\"row\" class=\"row-header\">Data Requirement</th>\n  <td class=\"content-container\">\n    <em>Type</em>: Condition\n    <br/>\n  \n    <em>Profile(s)</em>: \n  \n    http://hl7.org/fhir/us/qicore/StructureDefinition/qicore-condition-problems-health-concerns\n    <br/>        \n  \n   \n   \n    <em>Must Support Elements</em>: code, verificationStatus\n    <br/>\n   \n  \n    <em>Code Filter(s)</em>: \n    <br/>\n  \n  \n    <span class=\"tab-one\"><em>Path</em>: code</span>\n    <br/>\n  \n  \n  \n    <span class=\"tab-one\"><em>ValueSet</em>:</span> http://cts.nlm.nih.gov/fhir/ValueSet/2.16.840.1.113762.1.4.1111.171\n    <br/> \n  \n  \n  \n   \n  </td>\n</tr>\n\n<tr>\n  <th scope=\"row\" class=\"row-header\">Data Requirement</th>\n  <td class=\"content-container\">\n    <em>Type</em>: Procedure\n    <br/>\n  \n    <em>Profile(s)</em>: \n  \n    http://hl7.org/fhir/us/qicore/StructureDefinition/qicore-procedure\n    <br/>        \n  \n   \n   \n    <em>Must Support Elements</em>: code, performed, status, status.value\n    <br/>\n   \n  \n    <em>Code Filter(s)</em>: \n    <br/>\n  \n  \n    <span class=\"tab-one\"><em>Path</em>: code</span>\n    <br/>\n  \n  \n  \n    <span class=\"tab-one\"><em>ValueSet</em>:</span> http://cts.nlm.nih.gov/fhir/ValueSet/2.16.840.1.113762.1.4.1111.177\n    <br/> \n  \n  \n  \n   \n  </td>\n</tr>\n\n<tr>\n  <th scope=\"row\" class=\"row-header\">Data Requirement</th>\n  <td class=\"content-container\">\n    <em>Type</em>: Procedure\n    <br/>\n  \n    <em>Profile(s)</em>: \n  \n    http://hl7.org/fhir/us/qicore/StructureDefinition/qicore-procedure\n    <br/>        \n  \n   \n   \n    <em>Must Support Elements</em>: code, status, status.value\n    <br/>\n   \n  \n    <em>Code Filter(s)</em>: \n    <br/>\n  \n  \n    <span class=\"tab-one\"><em>Path</em>: code</span>\n    <br/>\n  \n  \n  \n    <span class=\"tab-one\"><em>ValueSet</em>:</span> http://cts.nlm.nih.gov/fhir/ValueSet/2.16.840.1.113883.3.600.1.1579\n    <br/> \n  \n  \n  \n   \n  </td>\n</tr>\n\n<tr>\n  <th scope=\"row\" class=\"row-header\">Data Requirement</th>\n  <td class=\"content-container\">\n    <em>Type</em>: ServiceRequest\n    <br/>\n  \n    <em>Profile(s)</em>: \n  \n    http://hl7.org/fhir/us/qicore/StructureDefinition/qicore-servicerequest\n    <br/>        \n  \n   \n   \n    <em>Must Support Elements</em>: code, status, status.value\n    <br/>\n   \n  \n    <em>Code Filter(s)</em>: \n    <br/>\n  \n  \n    <span class=\"tab-one\"><em>Path</em>: code</span>\n    <br/>\n  \n  \n  \n    <span class=\"tab-one\"><em>ValueSet</em>:</span> http://cts.nlm.nih.gov/fhir/ValueSet/2.16.840.1.113883.3.600.1.1579\n    <br/> \n  \n  \n  \n   \n  </td>\n</tr>\n\n\n\n  <tr>\n\n<th colspan=\"2\" scope=\"row\" class=\"row-header\">Library Content</th>\n\n</tr>\n  \n    \n    <tr>\n      <th scope=\"row\" class=\"row-header\">CQL Content</th>\n      <td>\n        <pre style=\"border: none;\" class=\"content-container highlight language-cql\"><code class=\"language-cql\">library CMS506FHIRSafeUseofOpioids version '0.3.007'\r\n\r\nusing QICore version '6.0.0'\r\n\r\ninclude CQMCommon version '4.1.000' called CQMCommon\r\ninclude FHIRHelpers version '4.4.000' called FHIRHelpers\r\ninclude QICoreCommon version '4.0.000' called QICoreCommon\r\ninclude SupplementalDataElements version '5.1.000' called SDE\r\n\r\nvalueset &quot;Cancer Related Pain&quot;: 'http://cts.nlm.nih.gov/fhir/ValueSet/2.16.840.1.113762.1.4.1111.180'\r\nvalueset &quot;Discharge To Acute Care Facility&quot;: 'http://cts.nlm.nih.gov/fhir/ValueSet/2.16.840.1.113883.3.117.1.7.1.87'\r\nvalueset &quot;Hospice Care Referral or Admission&quot;: 'http://cts.nlm.nih.gov/fhir/ValueSet/2.16.840.1.113762.1.4.1116.365'\r\nvalueset &quot;Left Against Medical Advice&quot;: 'http://cts.nlm.nih.gov/fhir/ValueSet/2.16.840.1.113883.3.117.1.7.1.308'\r\nvalueset &quot;Medications for Opioid Use Disorder (MOUD)&quot;: 'http://cts.nlm.nih.gov/fhir/ValueSet/2.16.840.1.113762.1.4.1046.269'\r\nvalueset &quot;Opioid Medication Assisted Treatment (MAT)&quot;: 'http://cts.nlm.nih.gov/fhir/ValueSet/2.16.840.1.113762.1.4.1111.177'\r\nvalueset &quot;Opioid Use Disorder&quot;: 'http://cts.nlm.nih.gov/fhir/ValueSet/2.16.840.1.113762.1.4.1111.171'\r\nvalueset &quot;Palliative or Hospice Care&quot;: 'http://cts.nlm.nih.gov/fhir/ValueSet/2.16.840.1.113883.3.600.1.1579'\r\nvalueset &quot;Patient Expired&quot;: 'http://cts.nlm.nih.gov/fhir/ValueSet/2.16.840.1.113883.3.117.1.7.1.309'\r\nvalueset &quot;Schedule II, III and IV Opioid Medications&quot;: 'http://cts.nlm.nih.gov/fhir/ValueSet/2.16.840.1.113762.1.4.1046.241'\r\nvalueset &quot;Schedule IV Benzodiazepines&quot;: 'http://cts.nlm.nih.gov/fhir/ValueSet/2.16.840.1.113762.1.4.1125.1'\r\nvalueset &quot;Sickle Cell Disease with and without Crisis&quot;: 'http://cts.nlm.nih.gov/fhir/ValueSet/2.16.840.1.113762.1.4.1111.175'\r\n\r\nparameter &quot;Measurement Period&quot; Interval&lt;DateTime&gt;\r\n\r\ncontext Patient\r\n\r\ndefine &quot;Initial Population&quot;:\r\n  &quot;Inpatient Encounters With An Opioid Or Benzodiazepine At Discharge&quot;\r\n\r\ndefine &quot;Denominator&quot;:\r\n  &quot;Initial Population&quot;\r\n\r\ndefine &quot;Inpatient Encounter With Age Greater Than Or Equal To 18&quot;:\r\n  CQMCommon.&quot;Inpatient Encounter&quot; InpatientHospitalEncounter\r\n    where AgeInYearsAt(date from start of InpatientHospitalEncounter.period) &gt;= 18\r\n\r\ndefine &quot;Inpatient Encounters With An Opioid Or Benzodiazepine At Discharge&quot;:\n/*Captures encounters of patients with an opioid and/or benzodiazepine at discharge*/\r\n  \r\n  &quot;Inpatient Encounter With Age Greater Than Or Equal To 18&quot; InpatientEncounter\r\n    with ( &quot;Opioid At Discharge&quot;\r\n      union &quot;Benzodiazepine At Discharge&quot; ) OpioidOrBenzodiazepineAtDischarge\r\n      such that OpioidOrBenzodiazepineAtDischarge.authoredOn during day of InpatientEncounter.period\r\n\r\ndefine &quot;Benzodiazepine At Discharge&quot;:\r\n  [&quot;MedicationRequest&quot;: &quot;Schedule IV Benzodiazepines&quot;] BenzoMedications\r\n    where ( BenzoMedications.isCommunity ( )\r\n        or BenzoMedications.isDischarge ( )\r\n    )\r\n      and BenzoMedications.status in { 'active', 'completed' }\r\n      and BenzoMedications.intent in { 'order', 'original-order', 'reflex-order', 'filler-order', 'instance-order' }\r\n\r\ndefine &quot;Opioid At Discharge&quot;:\r\n  [&quot;MedicationRequest&quot;: &quot;Schedule II, III and IV Opioid Medications&quot;] OpioidMedications\r\n    where ( OpioidMedications.isCommunity ( )\r\n        or OpioidMedications.isDischarge ( )\r\n    )\r\n      and OpioidMedications.status in { 'active', 'completed' }\r\n      and OpioidMedications.intent in { 'order', 'original-order', 'reflex-order', 'filler-order', 'instance-order' }\r\n\r\ndefine &quot;Numerator&quot;:\n  /*Encounters of patients prescribed two or more opioids or an opioid and benzodiazepine at discharge.*/\r\n  \r\n  &quot;Denominator&quot; InpatientEncounter\r\n    where ( Count(&quot;Opioid At Discharge&quot; OpioidMedications\r\n          where OpioidMedications.authoredOn during day of InpatientEncounter.period\r\n          return distinct OpioidMedications.medication\r\n      ) &gt;= 2\r\n    )\r\n      or ( exists &quot;Opioid At Discharge&quot; OpioidDischargeMedications\r\n          where OpioidDischargeMedications.authoredOn during day of InpatientEncounter.period\r\n            and exists ( &quot;Benzodiazepine At Discharge&quot; BenzodiazepineDischargeMedication\r\n                where BenzodiazepineDischargeMedication.authoredOn during day of InpatientEncounter.period\r\n            )\r\n      )\r\n\r\ndefine &quot;Inpatient Encounter With Encounter Diagnosis Of Cancer Pain&quot;:\r\n  &quot;Denominator&quot; QualifyingEncounter\r\n    where QualifyingEncounter.reasonCode in &quot;Cancer Related Pain&quot;\r\n      or QualifyingEncounter.encounterDiagnosis ( ).code in &quot;Cancer Related Pain&quot;\r\n\r\ndefine &quot;Denominator Exclusion&quot;:\n  /*Excludes encounters of patients with cancer pain or who are receiving palliative or hospice care at the time of the encounter or who receive treatment for opioid use disorder, have sickle cell disease, or who are discharged to another inpatient care facility or discharged against medical advice, or expire during the inpatient stay*/\r\n  \r\n  &quot;Denominator&quot; InpatientEncounter\r\n    where exists ( [&quot;ConditionProblemsHealthConcerns&quot;: &quot;Cancer Related Pain&quot;] CancerPain\r\n        where CancerPain.prevalenceInterval ( ) overlaps day of InpatientEncounter.period\r\n          and ( CancerPain.verificationStatus is not null implies ( CancerPain.verificationStatus !~ QICoreCommon.&quot;refuted&quot;\r\n                or CancerPain.verificationStatus !~ QICoreCommon.&quot;entered-in-error&quot;\r\n            )\r\n          )\r\n    )\r\n      or exists ( &quot;Inpatient Encounter With Encounter Diagnosis Of Cancer Pain&quot; )\r\n      or exists ( [&quot;ConditionProblemsHealthConcerns&quot;: &quot;Sickle Cell Disease with and without Crisis&quot;] SickleCellDisease\r\n          where SickleCellDisease.prevalenceInterval ( ) overlaps day of InpatientEncounter.period\r\n            and ( SickleCellDisease.verificationStatus is not null implies ( SickleCellDisease.verificationStatus !~ QICoreCommon.&quot;refuted&quot;\r\n                  or SickleCellDisease.verificationStatus !~ QICoreCommon.&quot;entered-in-error&quot;\r\n              )\r\n            )\r\n      )\r\n      or exists ( &quot;Treatment For Opioid Use Disorders&quot; OUDTreatment\r\n          where OUDTreatment.authoredOn during day of InpatientEncounter.period\r\n      )\r\n      or exists ( &quot;Intervention Palliative Or Hospice Care&quot; PalliativeOrHospiceCare\r\n          where Coalesce(start of PalliativeOrHospiceCare.performed.toInterval(), PalliativeOrHospiceCare.authoredOn) during InpatientEncounter.hospitalizationWithObservation ( )\r\n      )\r\n      or ( InpatientEncounter.hospitalization.dischargeDisposition in &quot;Discharge To Acute Care Facility&quot;\r\n          or InpatientEncounter.hospitalization.dischargeDisposition in &quot;Hospice Care Referral or Admission&quot;\r\n          or InpatientEncounter.hospitalization.dischargeDisposition in &quot;Patient Expired&quot;\r\n          or InpatientEncounter.hospitalization.dischargeDisposition in &quot;Left Against Medical Advice&quot;\r\n      )\r\n\r\ndefine &quot;Treatment For Opioid Use Disorders&quot;:\r\n  ( &quot;Medications For Opioid Use Disorder&quot; MedicationTreatment\r\n      with [&quot;Procedure&quot;: &quot;Opioid Medication Assisted Treatment (MAT)&quot;] MAT\r\n        such that MedicationTreatment.authoredOn during day of MAT.performed.toInterval ( )\r\n          and MedicationTreatment.authoredOn during day of &quot;Measurement Period&quot;\r\n          and MAT.status in { 'completed', 'in-progress' }\r\n  )\r\n    union ( &quot;Medications For Opioid Use Disorder&quot; MedicationTreatment\r\n        with [&quot;ConditionProblemsHealthConcerns&quot;: &quot;Opioid Use Disorder&quot;] OUD\r\n          such that MedicationTreatment.authoredOn during day of OUD.prevalenceInterval ( )\r\n            and OUD.prevalenceInterval ( ) overlaps day of &quot;Measurement Period&quot;\r\n            and ( OUD.verificationStatus is not null implies ( OUD.verificationStatus !~ QICoreCommon.&quot;refuted&quot;\r\n                  or OUD.verificationStatus !~ QICoreCommon.&quot;entered-in-error&quot;\r\n              )\r\n            )\r\n    )\r\n\r\ndefine &quot;Medications For Opioid Use Disorder&quot;:\r\n  [&quot;MedicationRequest&quot;: &quot;Medications for Opioid Use Disorder (MOUD)&quot;] DischargeMedication\r\n    where ( DischargeMedication.isCommunity ( )\r\n        or DischargeMedication.isDischarge ( )\r\n    )\r\n      and DischargeMedication.status in { 'active', 'completed' }\r\n      and DischargeMedication.intent in { 'order', 'original-order', 'reflex-order', 'filler-order', 'instance-order' }\r\n\r\ndefine &quot;Intervention Palliative Or Hospice Care&quot;:\r\n  ( [&quot;ServiceRequest&quot;: &quot;Palliative or Hospice Care&quot;] PalliativeOrHospiceCareOrder\r\n      where PalliativeOrHospiceCareOrder.status in { 'active', 'completed', 'on-hold' }\r\n  )\r\n    union ( [&quot;Procedure&quot;: &quot;Palliative or Hospice Care&quot;] PalliativeOrHospiceCarePerformed\r\n        where PalliativeOrHospiceCarePerformed.status in { 'completed', 'in-progress' }\r\n    )\r\n\r\ndefine &quot;SDE Ethnicity&quot;:\r\n  SDE.&quot;SDE Ethnicity&quot;\r\n\r\ndefine &quot;SDE Payer&quot;:\r\n  SDE.&quot;SDE Payer&quot;\r\n\r\ndefine &quot;SDE Race&quot;:\r\n  SDE.&quot;SDE Race&quot;\r\n\r\ndefine &quot;SDE Sex&quot;:\r\n  SDE.&quot;SDE Sex&quot;</code></pre>\n      </td>\n    </tr>\n    \n    \n    \n  \n\n<tr>\n  <th colspan=\"2\" scope=\"row\" class=\"row-header\">Generated using version 0.4.7 of the sample-content-ig Liquid templates</th>\n</tr>\n\n    </tbody>\n  </table>\n</div>"},"contained":[{"resourceType":"Parameters","id":"options","parameter":[{"name":"translatorVersion","valueString":"3.25.0"},{"name":"option","valueString":"EnableAnnotations"},{"name":"option","valueString":"EnableLocators"},{"name":"option","valueString":"DisableListDemotion"},{"name":"option","valueString":"DisableListPromotion"},{"name":"format","valueString":"XML"},{"name":"format","valueString":"JSON"},{"name":"analyzeDataRequirements","valueBoolean":false},{"name":"collapseDataRequirements","valueBoolean":false},{"name":"compatibilityLevel","valueString":"1.5"},{"name":"enableCqlOnly","valueBoolean":false},{"name":"errorLevel","valueString":"Info"},{"name":"signatureLevel","valueString":"Overloads"},{"name":"validateUnits","valueBoolean":true},{"name":"verifyOnly","valueBoolean":false}]}],"extension":[{"url":"http://hl7.org/fhir/StructureDefinition/cqf-cqlOptions","valueReference":{"reference":"#options"}},{"url":"http://hl7.org/fhir/uv/crmi/StructureDefinition/crmi-softwaresystem","valueReference":{"reference":"Device/cqf-tooling"}}],"url":"https://madie.cms.gov/Library/CMS506FHIRSafeUseofOpioids","identifier":[{"use":"official","system":"https://madie.cms.gov/login","value":"CMS506FHIRSafeUseofOpioids"}],"version":"0.3.007","name":"CMS506FHIRSafeUseofOpioids","title":"CMS506FHIRSafeUseofOpioids","status":"active","experimental":false,"type":{"coding":[{"system":"http://terminology.hl7.org/CodeSystem/library-type","code":"logic-library"}]},"date":"2025-07-07T16:25:34+00:00","publisher":"Centers for Medicare & Medicaid Services (CMS)","description":"CMS506FHIRSafeUseofOpioids","content":[{"contentType":"text/cql","data":""}]},"request":{"method":"PUT","url":"Library/CMS506FHIRSafeUseofOpioids"}},{"resource":{"resourceType":"Measure","id":"CMS506FHIRSafeUseofOpioids","meta":{"profile":["http://hl7.org/fhir/uv/crmi/StructureDefinition/crmi-shareablemeasure","http://hl7.org/fhir/us/cqfmeasures/StructureDefinition/computable-measure-cqfm","http://hl7.org/fhir/us/cqfmeasures/StructureDefinition/publishable-measure-cqfm","http://hl7.org/fhir/us/cqfmeasures/StructureDefinition/executable-measure-cqfm","http://hl7.org/fhir/us/cqfmeasures/StructureDefinition/cql-measure-cqfm","http://hl7.org/fhir/us/cqfmeasures/StructureDefinition/elm-measure-cqfm","http://hl7.org/fhir/us/cqfmeasures/StructureDefinition/proportion-measure-cqfm"]},"contained":[{"resourceType":"Library","id":"effective-data-requirements","extension":[{"url":"http://hl7.org/fhir/StructureDefinition/cqf-directReferenceCode","valueCoding":{"system":"http://snomed.info/sct","code":"248153007","display":"Male (finding)"}},{"url":"http://hl7.org/fhir/StructureDefinition/cqf-directReferenceCode","valueCoding":{"system":"http://snomed.info/sct","code":"248152002","display":"Female (finding)"}},{"url":"http://hl7.org/fhir/StructureDefinition/cqf-directReferenceCode","valueCoding":{"system":"http://terminology.hl7.org/CodeSystem/medicationrequest-category","code":"community","display":"Community"}},{"url":"http://hl7.org/fhir/StructureDefinition/cqf-directReferenceCode","valueCoding":{"system":"http://terminology.hl7.org/CodeSystem/medicationrequest-category","code":"discharge","display":"Discharge"}},{"url":"http://hl7.org/fhir/StructureDefinition/cqf-directReferenceCode","valueCoding":{"system":"http://terminology.hl7.org/CodeSystem/condition-clinical","code":"active","display":"Active"}},{"url":"http://hl7.org/fhir/StructureDefinition/cqf-directReferenceCode","valueCoding":{"system":"http://terminology.hl7.org/CodeSystem/condition-clinical","code":"recurrence","display":"Recurrence"}},{"url":"http://hl7.org/fhir/StructureDefinition/cqf-directReferenceCode","valueCoding":{"system":"http://terminology.hl7.org/CodeSystem/condition-clinical","code":"relapse","display":"Relapse"}},{"url":"http://hl7.org/fhir/StructureDefinition/cqf-directReferenceCode","valueCoding":{"system":"http://terminology.hl7.org/CodeSystem/condition-ver-status","code":"refuted","display":"Refuted"}},{"url":"http://hl7.org/fhir/StructureDefinition/cqf-directReferenceCode","valueCoding":{"system":"http://terminology.hl7.org/CodeSystem/condition-ver-status","code":"entered-in-error","display":"Entered in Error"}},{"url":"http://hl7.org/fhir/StructureDefinition/cqf-logicDefinition","extension":[{"url":"libraryName","valueString":"SupplementalDataElements"},{"url":"name","valueString":"SDE Sex"},{"url":"statement","valueString":"define \"SDE Sex\":\n  case\n    when Patient.sex = '248153007' then \"Male (finding)\"\n    when Patient.sex = '248152002' then \"Female (finding)\"\n    else null\n  end"},{"url":"displaySequence","valueInteger":0}]},{"url":"http://hl7.org/fhir/StructureDefinition/cqf-logicDefinition","extension":[{"url":"libraryName","valueString":"CMS506FHIRSafeUseofOpioids"},{"url":"name","valueString":"SDE Sex"},{"url":"statement","valueString":"define \"SDE Sex\":\n  SDE.\"SDE Sex\""},{"url":"displaySequence","valueInteger":1}]},{"url":"http://hl7.org/fhir/StructureDefinition/cqf-logicDefinition","extension":[{"url":"libraryName","valueString":"CQMCommon"},{"url":"name","valueString":"Inpatient Encounter"},{"url":"statement","valueString":"define \"Inpatient Encounter\":\n  [Encounter: \"Encounter Inpatient\"] EncounterInpatient\n    where EncounterInpatient.status = 'finished'\n      and EncounterInpatient.period ends during day of \"Measurement Period\""},{"url":"displaySequence","valueInteger":2}]},{"url":"http://hl7.org/fhir/StructureDefinition/cqf-logicDefinition","extension":[{"url":"libraryName","valueString":"CMS506FHIRSafeUseofOpioids"},{"url":"name","valueString":"Inpatient Encounter With Age Greater Than Or Equal To 18"},{"url":"statement","valueString":"define \"Inpatient Encounter With Age Greater Than Or Equal To 18\":\n  CQMCommon.\"Inpatient Encounter\" InpatientHospitalEncounter\n    where AgeInYearsAt(date from start of InpatientHospitalEncounter.period) >= 18"},{"url":"displaySequence","valueInteger":3}]},{"url":"http://hl7.org/fhir/StructureDefinition/cqf-logicDefinition","extension":[{"url":"libraryName","valueString":"CMS506FHIRSafeUseofOpioids"},{"url":"name","valueString":"Opioid At Discharge"},{"url":"statement","valueString":"define \"Opioid At Discharge\":\n  [\"MedicationRequest\": \"Schedule II, III and IV Opioid Medications\"] OpioidMedications\n    where ( OpioidMedications.isCommunity ( )\n        or OpioidMedications.isDischarge ( )\n    )\n      and OpioidMedications.status in { 'active', 'completed' }\n      and OpioidMedications.intent in { 'order', 'original-order', 'reflex-order', 'filler-order', 'instance-order' }"},{"url":"displaySequence","valueInteger":4}]},{"url":"http://hl7.org/fhir/StructureDefinition/cqf-logicDefinition","extension":[{"url":"libraryName","valueString":"CMS506FHIRSafeUseofOpioids"},{"url":"name","valueString":"Benzodiazepine At Discharge"},{"url":"statement","valueString":"define \"Benzodiazepine At Discharge\":\n  [\"MedicationRequest\": \"Schedule IV Benzodiazepines\"] BenzoMedications\n    where ( BenzoMedications.isCommunity ( )\n        or BenzoMedications.isDischarge ( )\n    )\n      and BenzoMedications.status in { 'active', 'completed' }\n      and BenzoMedications.intent in { 'order', 'original-order', 'reflex-order', 'filler-order', 'instance-order' }"},{"url":"displaySequence","valueInteger":5}]},{"url":"http://hl7.org/fhir/StructureDefinition/cqf-logicDefinition","extension":[{"url":"libraryName","valueString":"CMS506FHIRSafeUseofOpioids"},{"url":"name","valueString":"Inpatient Encounters With An Opioid Or Benzodiazepine At Discharge"},{"url":"statement","valueString":"define \"Inpatient Encounters With An Opioid Or Benzodiazepine At Discharge\":\n/*Captures encounters of patients with an opioid and/or benzodiazepine at discharge*/\n  \n  \"Inpatient Encounter With Age Greater Than Or Equal To 18\" InpatientEncounter\n    with ( \"Opioid At Discharge\"\n      union \"Benzodiazepine At Discharge\" ) OpioidOrBenzodiazepineAtDischarge\n      such that OpioidOrBenzodiazepineAtDischarge.authoredOn during day of InpatientEncounter.period"},{"url":"displaySequence","valueInteger":6}]},{"url":"http://hl7.org/fhir/StructureDefinition/cqf-logicDefinition","extension":[{"url":"libraryName","valueString":"CMS506FHIRSafeUseofOpioids"},{"url":"name","valueString":"Initial Population"},{"url":"statement","valueString":"define \"Initial Population\":\n  \"Inpatient Encounters With An Opioid Or Benzodiazepine At Discharge\""},{"url":"displaySequence","valueInteger":7}]},{"url":"http://hl7.org/fhir/StructureDefinition/cqf-logicDefinition","extension":[{"url":"libraryName","valueString":"CMS506FHIRSafeUseofOpioids"},{"url":"name","valueString":"Denominator"},{"url":"statement","valueString":"define \"Denominator\":\n  \"Initial Population\""},{"url":"displaySequence","valueInteger":8}]},{"url":"http://hl7.org/fhir/StructureDefinition/cqf-logicDefinition","extension":[{"url":"libraryName","valueString":"CMS506FHIRSafeUseofOpioids"},{"url":"name","valueString":"Numerator"},{"url":"statement","valueString":"define \"Numerator\":\n  /*Encounters of patients prescribed two or more opioids or an opioid and benzodiazepine at discharge.*/\n  \n  \"Denominator\" InpatientEncounter\n    where ( Count(\"Opioid At Discharge\" OpioidMedications\n          where OpioidMedications.authoredOn during day of InpatientEncounter.period\n          return distinct OpioidMedications.medication\n      ) >= 2\n    )\n      or ( exists \"Opioid At Discharge\" OpioidDischargeMedications\n          where OpioidDischargeMedications.authoredOn during day of InpatientEncounter.period\n            and exists ( \"Benzodiazepine At Discharge\" BenzodiazepineDischargeMedication\n                where BenzodiazepineDischargeMedication.authoredOn during day of InpatientEncounter.period\n            )\n      )"},{"url":"displaySequence","valueInteger":9}]},{"url":"http://hl7.org/fhir/StructureDefinition/cqf-logicDefinition","extension":[{"url":"libraryName","valueString":"SupplementalDataElements"},{"url":"name","valueString":"SDE Payer"},{"url":"statement","valueString":"define \"SDE Payer\":\n  [Coverage: type in \"Payer Type\"] Payer\n    return {\n      code: Payer.type,\n      period: Payer.period\n    }"},{"url":"displaySequence","valueInteger":10}]},{"url":"http://hl7.org/fhir/StructureDefinition/cqf-logicDefinition","extension":[{"url":"libraryName","valueString":"CMS506FHIRSafeUseofOpioids"},{"url":"name","valueString":"SDE Payer"},{"url":"statement","valueString":"define \"SDE Payer\":\n  SDE.\"SDE Payer\""},{"url":"displaySequence","valueInteger":11}]},{"url":"http://hl7.org/fhir/StructureDefinition/cqf-logicDefinition","extension":[{"url":"libraryName","valueString":"SupplementalDataElements"},{"url":"name","valueString":"SDE Ethnicity"},{"url":"statement","valueString":"define \"SDE Ethnicity\":\n  Patient.ethnicity E\n    return Tuple {\n      codes: { E.ombCategory } union E.detailed,\n      display: E.text\n    }"},{"url":"displaySequence","valueInteger":12}]},{"url":"http://hl7.org/fhir/StructureDefinition/cqf-logicDefinition","extension":[{"url":"libraryName","valueString":"CMS506FHIRSafeUseofOpioids"},{"url":"name","valueString":"SDE Ethnicity"},{"url":"statement","valueString":"define \"SDE Ethnicity\":\n  SDE.\"SDE Ethnicity\""},{"url":"displaySequence","valueInteger":13}]},{"url":"http://hl7.org/fhir/StructureDefinition/cqf-logicDefinition","extension":[{"url":"libraryName","valueString":"CMS506FHIRSafeUseofOpioids"},{"url":"name","valueString":"Inpatient Encounter With Encounter Diagnosis Of Cancer Pain"},{"url":"statement","valueString":"define \"Inpatient Encounter With Encounter Diagnosis Of Cancer Pain\":\n  \"Denominator\" QualifyingEncounter\n    where QualifyingEncounter.reasonCode in \"Cancer Related Pain\"\n      or QualifyingEncounter.encounterDiagnosis ( ).code in \"Cancer Related Pain\""},{"url":"displaySequence","valueInteger":14}]},{"url":"http://hl7.org/fhir/StructureDefinition/cqf-logicDefinition","extension":[{"url":"libraryName","valueString":"CMS506FHIRSafeUseofOpioids"},{"url":"name","valueString":"Medications For Opioid Use Disorder"},{"url":"statement","valueString":"define \"Medications For Opioid Use Disorder\":\n  [\"MedicationRequest\": \"Medications for Opioid Use Disorder (MOUD)\"] DischargeMedication\n    where ( DischargeMedication.isCommunity ( )\n        or DischargeMedication.isDischarge ( )\n    )\n      and DischargeMedication.status in { 'active', 'completed' }\n      and DischargeMedication.intent in { 'order', 'original-order', 'reflex-order', 'filler-order', 'instance-order' }"},{"url":"displaySequence","valueInteger":15}]},{"url":"http://hl7.org/fhir/StructureDefinition/cqf-logicDefinition","extension":[{"url":"libraryName","valueString":"CMS506FHIRSafeUseofOpioids"},{"url":"name","valueString":"Treatment For Opioid Use Disorders"},{"url":"statement","valueString":"define \"Treatment For Opioid Use Disorders\":\n  ( \"Medications For Opioid Use Disorder\" MedicationTreatment\n      with [\"Procedure\": \"Opioid Medication Assisted Treatment (MAT)\"] MAT\n        such that MedicationTreatment.authoredOn during day of MAT.performed.toInterval ( )\n          and MedicationTreatment.authoredOn during day of \"Measurement Period\"\n          and MAT.status in { 'completed', 'in-progress' }\n  )\n    union ( \"Medications For Opioid Use Disorder\" MedicationTreatment\n        with [\"ConditionProblemsHealthConcerns\": \"Opioid Use Disorder\"] OUD\n          such that MedicationTreatment.authoredOn during day of OUD.prevalenceInterval ( )\n            and OUD.prevalenceInterval ( ) overlaps day of \"Measurement Period\"\n            and ( OUD.verificationStatus is not null implies ( OUD.verificationStatus !~ QICoreCommon.\"refuted\"\n                  or OUD.verificationStatus !~ QICoreCommon.\"entered-in-error\"\n              )\n            )\n    )"},{"url":"displaySequence","valueInteger":16}]},{"url":"http://hl7.org/fhir/StructureDefinition/cqf-logicDefinition","extension":[{"url":"libraryName","valueString":"CMS506FHIRSafeUseofOpioids"},{"url":"name","valueString":"Intervention Palliative Or Hospice Care"},{"url":"statement","valueString":"define \"Intervention Palliative Or Hospice Care\":\n  ( [\"ServiceRequest\": \"Palliative or Hospice Care\"] PalliativeOrHospiceCareOrder\n      where PalliativeOrHospiceCareOrder.status in { 'active', 'completed', 'on-hold' }\n  )\n    union ( [\"Procedure\": \"Palliative or Hospice Care\"] PalliativeOrHospiceCarePerformed\n        where PalliativeOrHospiceCarePerformed.status in { 'completed', 'in-progress' }\n    )"},{"url":"displaySequence","valueInteger":17}]},{"url":"http://hl7.org/fhir/StructureDefinition/cqf-logicDefinition","extension":[{"url":"libraryName","valueString":"CMS506FHIRSafeUseofOpioids"},{"url":"name","valueString":"Denominator Exclusion"},{"url":"statement","valueString":"define \"Denominator Exclusion\":\n  /*Excludes encounters of patients with cancer pain or who are receiving palliative or hospice care at the time of the encounter or who receive treatment for opioid use disorder, have sickle cell disease, or who are discharged to another inpatient care facility or discharged against medical advice, or expire during the inpatient stay*/\n  \n  \"Denominator\" InpatientEncounter\n    where exists ( [\"ConditionProblemsHealthConcerns\": \"Cancer Related Pain\"] CancerPain\n        where CancerPain.prevalenceInterval ( ) overlaps day of InpatientEncounter.period\n          and ( CancerPain.verificationStatus is not null implies ( CancerPain.verificationStatus !~ QICoreCommon.\"refuted\"\n                or CancerPain.verificationStatus !~ QICoreCommon.\"entered-in-error\"\n            )\n          )\n    )\n      or exists ( \"Inpatient Encounter With Encounter Diagnosis Of Cancer Pain\" )\n      or exists ( [\"ConditionProblemsHealthConcerns\": \"Sickle Cell Disease with and without Crisis\"] SickleCellDisease\n          where SickleCellDisease.prevalenceInterval ( ) overlaps day of InpatientEncounter.period\n            and ( SickleCellDisease.verificationStatus is not null implies ( SickleCellDisease.verificationStatus !~ QICoreCommon.\"refuted\"\n                  or SickleCellDisease.verificationStatus !~ QICoreCommon.\"entered-in-error\"\n              )\n            )\n      )\n      or exists ( \"Treatment For Opioid Use Disorders\" OUDTreatment\n          where OUDTreatment.authoredOn during day of InpatientEncounter.period\n      )\n      or exists ( \"Intervention Palliative Or Hospice Care\" PalliativeOrHospiceCare\n          where Coalesce(start of PalliativeOrHospiceCare.performed.toInterval(), PalliativeOrHospiceCare.authoredOn) during InpatientEncounter.hospitalizationWithObservation ( )\n      )\n      or ( InpatientEncounter.hospitalization.dischargeDisposition in \"Discharge To Acute Care Facility\"\n          or InpatientEncounter.hospitalization.dischargeDisposition in \"Hospice Care Referral or Admission\"\n          or InpatientEncounter.hospitalization.dischargeDisposition in \"Patient Expired\"\n          or InpatientEncounter.hospitalization.dischargeDisposition in \"Left Against Medical Advice\"\n      )"},{"url":"displaySequence","valueInteger":18}]},{"url":"http://hl7.org/fhir/StructureDefinition/cqf-logicDefinition","extension":[{"url":"libraryName","valueString":"SupplementalDataElements"},{"url":"name","valueString":"SDE Race"},{"url":"statement","valueString":"define \"SDE Race\":\n  Patient.race R\n    return Tuple {\n      codes: R.ombCategory union R.detailed,\n      display: R.text\n    }"},{"url":"displaySequence","valueInteger":19}]},{"url":"http://hl7.org/fhir/StructureDefinition/cqf-logicDefinition","extension":[{"url":"libraryName","valueString":"CMS506FHIRSafeUseofOpioids"},{"url":"name","valueString":"SDE Race"},{"url":"statement","valueString":"define \"SDE Race\":\n  SDE.\"SDE Race\""},{"url":"displaySequence","valueInteger":20}]},{"url":"http://hl7.org/fhir/StructureDefinition/cqf-logicDefinition","extension":[{"url":"libraryName","valueString":"FHIRHelpers"},{"url":"name","valueString":"ToString"},{"url":"statement","valueString":"define function ToString(value uri): value.value"},{"url":"displaySequence","valueInteger":21}]},{"url":"http://hl7.org/fhir/StructureDefinition/cqf-logicDefinition","extension":[{"url":"libraryName","valueString":"FHIRHelpers"},{"url":"name","valueString":"ToInterval"},{"url":"statement","valueString":"/*\n@description: Converts the given [Period](https://hl7.org/fhir/datatypes.html#Period)\nvalue to a CQL DateTime Interval\n@comment: If the start value of the given period is unspecified, the starting\nboundary of the resulting interval will be open (meaning the start of the interval\nis unknown, as opposed to interpreted as the beginning of time).\n*/\ndefine function ToInterval(period FHIR.Period):\n    if period is null then\n        null\n    else\n        if period.\"start\" is null then\n            Interval(period.\"start\".value, period.\"end\".value]\n        else\n            Interval[period.\"start\".value, period.\"end\".value]"},{"url":"displaySequence","valueInteger":22}]},{"url":"http://hl7.org/fhir/StructureDefinition/cqf-logicDefinition","extension":[{"url":"libraryName","valueString":"QICoreCommon"},{"url":"name","valueString":"isCommunity"},{"url":"statement","valueString":"/*\n@description: Returns true if the given MedicationRequest has a category of Community\n*/\ndefine fluent function isCommunity(medicationRequest Choice<MedicationRequest, MedicationNotRequested>):\n  exists (medicationRequest.category C\n    where C ~ Community\n  )"},{"url":"displaySequence","valueInteger":23}]},{"url":"http://hl7.org/fhir/StructureDefinition/cqf-logicDefinition","extension":[{"url":"libraryName","valueString":"FHIRHelpers"},{"url":"name","valueString":"ToConcept"},{"url":"statement","valueString":"/*\n@description: Converts the given FHIR [CodeableConcept](https://hl7.org/fhir/datatypes.html#CodeableConcept) value to a CQL Concept.\n*/\ndefine function ToConcept(concept FHIR.CodeableConcept):\n    if concept is null then\n        null\n    else\n        System.Concept {\n            codes: concept.coding C return ToCode(C),\n            display: concept.text.value\n        }"},{"url":"displaySequence","valueInteger":24}]},{"url":"http://hl7.org/fhir/StructureDefinition/cqf-logicDefinition","extension":[{"url":"libraryName","valueString":"FHIRHelpers"},{"url":"name","valueString":"ToCode"},{"url":"statement","valueString":"/*\n@description: Converts the given FHIR [Coding](https://hl7.org/fhir/datatypes.html#Coding) value to a CQL Code.\n*/\ndefine function ToCode(coding FHIR.Coding):\n    if coding is null then\n        null\n    else\n        System.Code {\n          code: coding.code.value,\n          system: coding.system.value,\n          version: coding.version.value,\n          display: coding.display.value\n        }"},{"url":"displaySequence","valueInteger":25}]},{"url":"http://hl7.org/fhir/StructureDefinition/cqf-logicDefinition","extension":[{"url":"libraryName","valueString":"QICoreCommon"},{"url":"name","valueString":"isDischarge"},{"url":"statement","valueString":"/*\n@description: Returns true if the given MedicationRequest has a category of Discharge\n*/\ndefine fluent function isDischarge(medicationRequest Choice<MedicationRequest, MedicationNotRequested>):\n  exists (medicationRequest.category C\n    where C ~ Discharge\n  )"},{"url":"displaySequence","valueInteger":26}]},{"url":"http://hl7.org/fhir/StructureDefinition/cqf-logicDefinition","extension":[{"url":"libraryName","valueString":"QICoreCommon"},{"url":"name","valueString":"prevalenceInterval"},{"url":"statement","valueString":"/*\n@description: Returns an interval representing the normalized prevalence period of a given Condition.\n@comment: Uses the ToInterval and ToAbatementInterval functions to determine the widest potential interval from\nonset to abatement as specified in the given Condition. If the condition is active, or has an abatement date the resulting \ninterval will have a closed ending boundary. Otherwise, the resulting interval will have an open ending boundary.\n*/\ndefine fluent function prevalenceInterval(condition Choice<\"ConditionEncounterDiagnosis\", \"ConditionProblemsHealthConcerns\">):\nif condition.clinicalStatus ~ \"active\"\n  or condition.clinicalStatus ~ \"recurrence\"\n  or condition.clinicalStatus ~ \"relapse\" then\n  Interval[start of condition.onset.toInterval(), end of condition.abatementInterval()]\nelse\n    (end of condition.abatementInterval()) abatementDate\n    return if abatementDate is null then\n      Interval[start of condition.onset.toInterval(), abatementDate)\n    else\n      Interval[start of condition.onset.toInterval(), abatementDate]"},{"url":"displaySequence","valueInteger":27}]},{"url":"http://hl7.org/fhir/StructureDefinition/cqf-logicDefinition","extension":[{"url":"libraryName","valueString":"QICoreCommon"},{"url":"name","valueString":"abatementInterval"},{"url":"statement","valueString":"/*\n@description: Returns an interval representing the normalized abatement of a given Condition.\n@comment: If the abatement element of the Condition is represented as a DateTime, the result\nis an interval beginning and ending on that DateTime.\nIf the abatement is represented as a Quantity, the quantity is expected to be a calendar-duration and is interpreted as the age of the patient. The\nresult is an interval from the date the patient turned that age to immediately before one year later.\nIf the abatement is represented as a Quantity Interval, the quantities are expected to be calendar-durations and are interpreted as an age range during\nwhich the abatement occurred. The result is an interval from the date the patient turned the starting age of the quantity interval, and ending immediately\nbefore one year later than the date the patient turned the ending age of the quantity interval.\n*/\ndefine fluent function abatementInterval(condition Choice<\"ConditionEncounterDiagnosis\", \"ConditionProblemsHealthConcerns\">):\n\tif condition.abatement is DateTime then\n\t  Interval[condition.abatement as DateTime, condition.abatement as DateTime]\n\telse if condition.abatement is Quantity then\n\t\tInterval[Patient.birthDate + (condition.abatement as Quantity),\n\t\t\tPatient.birthDate + (condition.abatement as Quantity) + 1 year)\n\telse if condition.abatement is Interval<Quantity> then\n\t  Interval[Patient.birthDate + (condition.abatement.low as Quantity),\n\t\t  Patient.birthDate + (condition.abatement.high as Quantity) + 1 year)\n\telse if condition.abatement is Interval<DateTime> then\n\t  Interval[condition.abatement.low, condition.abatement.high)\n\telse null as Interval<DateTime>"},{"url":"displaySequence","valueInteger":28}]},{"url":"http://hl7.org/fhir/StructureDefinition/cqf-logicDefinition","extension":[{"url":"libraryName","valueString":"CQMCommon"},{"url":"name","valueString":"encounterDiagnosis"},{"url":"statement","valueString":"/*  \n@description: Returns the Condition resources referenced by the diagnosis element of the Encounter  \n*/\ndefine fluent function encounterDiagnosis(Encounter Encounter ):\n  Encounter.reasonReference D\n    return singleton from (([ConditionEncounterDiagnosis] union [ConditionProblemsHealthConcerns]) C where D.references(C.id))"},{"url":"displaySequence","valueInteger":29}]},{"url":"http://hl7.org/fhir/StructureDefinition/cqf-logicDefinition","extension":[{"url":"libraryName","valueString":"QICoreCommon"},{"url":"name","valueString":"references"},{"url":"statement","valueString":"/*\n@description: Returns true if the given reference is to the given resourceId\n@comment: Returns true if the `resourceId` parameter exactly equals the tail of the given reference.\nNOTE: This function assumes resources from the same source server.\n*/\ndefine fluent function references(reference Reference, resourceId String):\n  resourceId = Last(Split(reference.reference, '/'))"},{"url":"displaySequence","valueInteger":30}]},{"url":"http://hl7.org/fhir/StructureDefinition/cqf-logicDefinition","extension":[{"url":"libraryName","valueString":"QICoreCommon"},{"url":"name","valueString":"toInterval"},{"url":"statement","valueString":"/*\n@description: Normalizes a value that is a choice of timing-valued types to an equivalent interval\n@comment: Normalizes a choice type of DateTime, Quanitty, Interval<DateTime>, or Interval<Quantity> types\nto an equivalent interval. This selection of choice types is a superset of the majority of choice types that are used as possible\nrepresentations for timing-valued elements in QICore, allowing this function to be used across any resource.\nThe input can be provided as a DateTime, Quantity, Interval<DateTime> or Interval<Quantity>.\nThe intent of this function is to provide a clear and concise mechanism to treat single\nelements that have multiple possible representations as intervals so that logic doesn't have to account\nfor the variability. More complex calculations (such as medication request period or dispense period\ncalculation) need specific guidance and consideration. That guidance may make use of this function, but\nthe focus of this function is on single element calculations where the semantics are unambiguous.\nIf the input is a DateTime, the result a DateTime Interval beginning and ending on that DateTime.\nIf the input is a Quantity, the quantity is expected to be a calendar-duration interpreted as an Age,\nand the result is a DateTime Interval beginning on the Date the patient turned that age and ending immediately before one year later.\nIf the input is a DateTime Interval, the result is the input.\nIf the input is a Quantity Interval, the quantities are expected to be calendar-durations interpreted as an Age, and the result\nis a DateTime Interval beginning on the date the patient turned the age given as the start of the quantity interval, and ending\nimmediately before one year later than the date the patient turned the age given as the end of the quantity interval.\nIf the input is a Timing, an error will be thrown indicating that Timing calculations are not implemented. Any other input will reslt in a null DateTime Interval\n*/\ndefine fluent function toInterval(choice Choice<DateTime, Quantity, Interval<DateTime>, Interval<Quantity>, Timing>):\n  case\n\t  when choice is DateTime then\n    \tInterval[choice as DateTime, choice as DateTime]\n\t\twhen choice is Interval<DateTime> then\n  \t\tchoice as Interval<DateTime>\n\t\twhen choice is Quantity then\n\t\t  Interval[Patient.birthDate + (choice as Quantity),\n\t\t\t  Patient.birthDate + (choice as Quantity) + 1 year)\n\t\twhen choice is Interval<Quantity> then\n\t\t  Interval[Patient.birthDate + (choice.low as Quantity),\n\t\t\t  Patient.birthDate + (choice.high as Quantity) + 1 year)\n\t\twhen choice is Timing then\n      Message(null, true, 'NOT_IMPLEMENTED', 'Error', 'Calculation of an interval from a Timing value is not supported') as Interval<DateTime>\n\t\telse\n\t\t\tnull as Interval<DateTime>\n\tend"},{"url":"displaySequence","valueInteger":31}]},{"url":"http://hl7.org/fhir/StructureDefinition/cqf-logicDefinition","extension":[{"url":"libraryName","valueString":"CQMCommon"},{"url":"name","valueString":"hospitalizationWithObservation"},{"url":"statement","valueString":"/*\n@description: Hospitalization with Observation returns the total interval from the start of any immediately prior emergency department visit through the observation visit to the discharge of the given encounter\n*/\ndefine fluent function hospitalizationWithObservation(TheEncounter Encounter ):\n  TheEncounter Visit\n  \t\tlet ObsVisit: Last([Encounter: \"Observation Services\"] LastObs\n  \t\t\t\twhere LastObs.status = 'finished'\n            and LastObs.period ends 1 hour or less on or before start of Visit.period\n  \t\t\t\tsort by end of period\n  \t\t\t),\n  \t\t\tVisitStart: Coalesce(start of ObsVisit.period, start of Visit.period),\n  \t\t\tEDVisit: Last([Encounter: \"Emergency Department Visit\"] LastED\n  \t\t\t\twhere LastED.status = 'finished'\n            and LastED.period ends 1 hour or less on or before VisitStart\n  \t\t\t\tsort by end of period\n  \t\t\t)\n  \t\treturn Interval[Coalesce(start of EDVisit.period, VisitStart), end of Visit.period]"},{"url":"displaySequence","valueInteger":32}]}],"name":"EffectiveDataRequirements","status":"active","type":{"coding":[{"system":"http://terminology.hl7.org/CodeSystem/library-type","code":"module-definition"}]},"relatedArtifact":[{"type":"depends-on","display":"Library SDE","resource":"https://madie.cms.gov/Library/SupplementalDataElements|5.1.000"},{"type":"depends-on","display":"Library FHIRHelpers","resource":"https://madie.cms.gov/Library/FHIRHelpers|4.4.000"},{"type":"depends-on","display":"Library CQMCommon","resource":"https://madie.cms.gov/Library/CQMCommon|4.1.000"},{"type":"depends-on","display":"Library QICoreCommon","resource":"https://madie.cms.gov/Library/QICoreCommon|4.0.000"},{"type":"depends-on","display":"Code system SNOMEDCT","resource":"http://snomed.info/sct"},{"type":"depends-on","display":"Code system MedicationRequestCategory","resource":"http://terminology.hl7.org/CodeSystem/medicationrequest-category"},{"type":"depends-on","display":"Code system ConditionClinicalStatusCodes","resource":"http://terminology.hl7.org/CodeSystem/condition-clinical"},{"type":"depends-on","display":"Code system ConditionVerificationStatusCodes","resource":"http://terminology.hl7.org/CodeSystem/condition-ver-status"},{"type":"depends-on","display":"Value set Encounter Inpatient","resource":"http://cts.nlm.nih.gov/fhir/ValueSet/2.16.840.1.113883.3.666.5.307"},{"type":"depends-on","display":"Value set Schedule II, III and IV Opioid Medications","resource":"http://cts.nlm.nih.gov/fhir/ValueSet/2.16.840.1.113762.1.4.1046.241"},{"type":"depends-on","display":"Value set Schedule IV Benzodiazepines","resource":"http://cts.nlm.nih.gov/fhir/ValueSet/2.16.840.1.113762.1.4.1125.1"},{"type":"depends-on","display":"Value set Payer Type","resource":"http://cts.nlm.nih.gov/fhir/ValueSet/2.16.840.1.114222.4.11.3591"},{"type":"depends-on","display":"Value set Cancer Related Pain","resource":"http://cts.nlm.nih.gov/fhir/ValueSet/2.16.840.1.113762.1.4.1111.180"},{"type":"depends-on","display":"Value set Sickle Cell Disease with and without Crisis","resource":"http://cts.nlm.nih.gov/fhir/ValueSet/2.16.840.1.113762.1.4.1111.175"},{"type":"depends-on","display":"Value set Medications for Opioid Use Disorder (MOUD)","resource":"http://cts.nlm.nih.gov/fhir/ValueSet/2.16.840.1.113762.1.4.1046.269"},{"type":"depends-on","display":"Value set Opioid Medication Assisted Treatment (MAT)","resource":"http://cts.nlm.nih.gov/fhir/ValueSet/2.16.840.1.113762.1.4.1111.177"},{"type":"depends-on","display":"Value set Opioid Use Disorder","resource":"http://cts.nlm.nih.gov/fhir/ValueSet/2.16.840.1.113762.1.4.1111.171"},{"type":"depends-on","display":"Value set Palliative or Hospice Care","resource":"http://cts.nlm.nih.gov/fhir/ValueSet/2.16.840.1.113883.3.600.1.1579"},{"type":"depends-on","display":"Value set Observation Services","resource":"http://cts.nlm.nih.gov/fhir/ValueSet/2.16.840.1.113762.1.4.1111.143"},{"type":"depends-on","display":"Value set Emergency Department Visit","resource":"http://cts.nlm.nih.gov/fhir/ValueSet/2.16.840.1.113883.3.117.1.7.1.292"},{"type":"depends-on","display":"Value set Discharge To Acute Care Facility","resource":"http://cts.nlm.nih.gov/fhir/ValueSet/2.16.840.1.113883.3.117.1.7.1.87"},{"type":"depends-on","display":"Value set Hospice Care Referral or Admission","resource":"http://cts.nlm.nih.gov/fhir/ValueSet/2.16.840.1.113762.1.4.1116.365"},{"type":"depends-on","display":"Value set Patient Expired","resource":"http://cts.nlm.nih.gov/fhir/ValueSet/2.16.840.1.113883.3.117.1.7.1.309"},{"type":"depends-on","display":"Value set Left Against Medical Advice","resource":"http://cts.nlm.nih.gov/fhir/ValueSet/2.16.840.1.113883.3.117.1.7.1.308"}],"parameter":[{"name":"Measurement Period","use":"in","min":0,"max":"1","type":"Period"},{"name":"Numerator","use":"out","min":0,"max":"*","type":"Resource"},{"name":"Denominator","use":"out","min":0,"max":"*","type":"Resource"},{"name":"Initial Population","use":"out","min":0,"max":"*","type":"Resource"},{"name":"Denominator Exclusion","use":"out","min":0,"max":"*","type":"Resource"},{"name":"SDE Sex","use":"out","min":0,"max":"1","type":"Coding"},{"name":"SDE Payer","use":"out","min":0,"max":"*","type":"Resource"},{"name":"SDE Ethnicity","use":"out","min":0,"max":"1","type":"Resource"},{"name":"SDE Race","use":"out","min":0,"max":"1","type":"Resource"}],"dataRequirement":[{"type":"Patient","profile":["http://hl7.org/fhir/us/qicore/StructureDefinition/qicore-patient"],"mustSupport":["extension","url","birthDate","birthDate.value"]},{"type":"Encounter","profile":["http://hl7.org/fhir/us/qicore/StructureDefinition/qicore-encounter"],"mustSupport":["type","status","status.value","period","reasonCode","hospitalization","hospitalization.dischargeDisposition"],"codeFilter":[{"path":"type","valueSet":"http://cts.nlm.nih.gov/fhir/ValueSet/2.16.840.1.113883.3.666.5.307"}]},{"type":"Encounter","profile":["http://hl7.org/fhir/us/qicore/StructureDefinition/qicore-encounter"],"mustSupport":["type","status","status.value","period","reasonCode","hospitalization","hospitalization.dischargeDisposition"],"codeFilter":[{"path":"type","valueSet":"http://cts.nlm.nih.gov/fhir/ValueSet/2.16.840.1.113762.1.4.1111.143"}]},{"type":"Encounter","profile":["http://hl7.org/fhir/us/qicore/StructureDefinition/qicore-encounter"],"mustSupport":["type","status","status.value","period","reasonCode","hospitalization","hospitalization.dischargeDisposition"],"codeFilter":[{"path":"type","valueSet":"http://cts.nlm.nih.gov/fhir/ValueSet/2.16.840.1.113883.3.117.1.7.1.292"}]},{"type":"MedicationRequest","profile":["http://hl7.org/fhir/us/qicore/StructureDefinition/qicore-medicationrequest"],"mustSupport":["medication","status","status.value","intent","intent.value","authoredOn","authoredOn.value"],"codeFilter":[{"path":"medication","valueSet":"http://cts.nlm.nih.gov/fhir/ValueSet/2.16.840.1.113762.1.4.1046.241"}]},{"type":"MedicationRequest","profile":["http://hl7.org/fhir/us/qicore/StructureDefinition/qicore-medicationrequest"],"mustSupport":["medication","status","status.value","intent","intent.value","authoredOn","authoredOn.value"],"codeFilter":[{"path":"medication","valueSet":"http://cts.nlm.nih.gov/fhir/ValueSet/2.16.840.1.113762.1.4.1125.1"}]},{"type":"MedicationRequest","profile":["http://hl7.org/fhir/us/qicore/StructureDefinition/qicore-medicationrequest"],"mustSupport":["medication","status","status.value","intent","intent.value","authoredOn","authoredOn.value"],"codeFilter":[{"path":"medication","valueSet":"http://cts.nlm.nih.gov/fhir/ValueSet/2.16.840.1.113762.1.4.1046.269"}]},{"type":"MedicationRequest","profile":["http://hl7.org/fhir/us/qicore/StructureDefinition/qicore-medicationrequest"],"mustSupport":["medication.reference.value","status","status.value","intent","intent.value","authoredOn","authoredOn.value","medication"]},{"type":"Medication","profile":["http://hl7.org/fhir/us/qicore/StructureDefinition/qicore-medication"],"mustSupport":["id.value","code"]},{"type":"Coverage","profile":["http://hl7.org/fhir/us/qicore/StructureDefinition/qicore-coverage"],"mustSupport":["type","period"],"codeFilter":[{"path":"type","valueSet":"http://cts.nlm.nih.gov/fhir/ValueSet/2.16.840.1.114222.4.11.3591"}]},{"type":"Condition","profile":["http://hl7.org/fhir/us/qicore/StructureDefinition/qicore-condition-encounter-diagnosis"]},{"type":"Condition","profile":["http://hl7.org/fhir/us/qicore/StructureDefinition/qicore-condition-problems-health-concerns"]},{"type":"Condition","profile":["http://hl7.org/fhir/us/qicore/StructureDefinition/qicore-condition-problems-health-concerns"],"mustSupport":["code","verificationStatus"],"codeFilter":[{"path":"code","valueSet":"http://cts.nlm.nih.gov/fhir/ValueSet/2.16.840.1.113762.1.4.1111.171"}]},{"type":"Condition","profile":["http://hl7.org/fhir/us/qicore/StructureDefinition/qicore-condition-problems-health-concerns"],"mustSupport":["code","verificationStatus"],"codeFilter":[{"path":"code","valueSet":"http://cts.nlm.nih.gov/fhir/ValueSet/2.16.840.1.113762.1.4.1111.180"}]},{"type":"Condition","profile":["http://hl7.org/fhir/us/qicore/StructureDefinition/qicore-condition-problems-health-concerns"],"mustSupport":["code","verificationStatus"],"codeFilter":[{"path":"code","valueSet":"http://cts.nlm.nih.gov/fhir/ValueSet/2.16.840.1.113762.1.4.1111.175"}]},{"type":"Procedure","profile":["http://hl7.org/fhir/us/qicore/StructureDefinition/qicore-procedure"],"mustSupport":["code","performed","status","status.value"],"codeFilter":[{"path":"code","valueSet":"http://cts.nlm.nih.gov/fhir/ValueSet/2.16.840.1.113762.1.4.1111.177"}]},{"type":"Procedure","profile":["http://hl7.org/fhir/us/qicore/StructureDefinition/qicore-procedure"],"mustSupport":["code","status","status.value"],"codeFilter":[{"path":"code","valueSet":"http://cts.nlm.nih.gov/fhir/ValueSet/2.16.840.1.113883.3.600.1.1579"}]},{"type":"ServiceRequest","profile":["http://hl7.org/fhir/us/qicore/StructureDefinition/qicore-servicerequest"],"mustSupport":["code","status","status.value"],"codeFilter":[{"path":"code","valueSet":"http://cts.nlm.nih.gov/fhir/ValueSet/2.16.840.1.113883.3.600.1.1579"}]}]}],"extension":[{"id":"supplementalDataGuidance","url":"http://hl7.org/fhir/us/cqfmeasures/StructureDefinition/cqfm-supplementalDataGuidance","extension":[{"url":"guidance","valueString":"For every patient evaluated by this measure also identify payer, race, ethnicity and sex.\n "},{"url":"usage","valueCodeableConcept":{"coding":[{"system":"http://terminology.hl7.org/CodeSystem/measure-data-usage","code":"supplemental-data","display":"Supplemental Data"}],"text":"Supplemental Data Guidance"}}]},{"url":"http://hl7.org/fhir/uv/crmi/StructureDefinition/crmi-effectiveDataRequirements","valueReference":{"reference":"#effective-data-requirements"}}],"url":"https://madie.cms.gov/Measure/CMS506FHIRSafeUseofOpioids","identifier":[{"use":"usual","type":{"coding":[{"system":"http://terminology.hl7.org/CodeSystem/artifact-identifier-type","code":"short-name","display":"Short Name"}]},"system":"https://madie.cms.gov/measure/shortName","value":"CMS506FHIR"},{"use":"official","type":{"coding":[{"system":"http://terminology.hl7.org/CodeSystem/artifact-identifier-type","code":"version-independent","display":"Version Independent"}]},"system":"urn:ietf:rfc:3986","value":"urn:uuid:95d529af-66b4-4cfd-bc1f-f43704dc47ad"},{"use":"official","type":{"coding":[{"system":"http://terminology.hl7.org/CodeSystem/artifact-identifier-type","code":"version-specific","display":"Version Specific"}]},"system":"urn:ietf:rfc:3986","value":"urn:uuid:a5424631-846f-4d04-803b-afbf6dc25df6"},{"use":"official","type":{"coding":[{"system":"http://terminology.hl7.org/CodeSystem/artifact-identifier-type","code":"endorser","display":"Endorser"}]},"system":"https://madie.cms.gov/measure/cbeId","value":"3316e","assigner":{"display":"CMS Consensus Based Entity"}},{"use":"official","type":{"coding":[{"system":"http://terminology.hl7.org/CodeSystem/artifact-identifier-type","code":"publisher","display":"Publisher"}]},"system":"https://madie.cms.gov/measure/cmsId","value":"506FHIR","assigner":{"display":"CMS"}}],"version":"0.3.007","name":"CMS506FHIRSafeUseofOpioids","title":"Safe Use of Opioids - Concurrent PrescribingFHIR","status":"active","experimental":false,"date":"2025-07-07T16:25:33+00:00","publisher":"Centers for Medicare & Medicaid Services (CMS)","contact":[{"telecom":[{"system":"url","value":"https://www.cms.gov/"}]}],"description":"Proportion of inpatient hospitalizations for patients 18 years of age and older prescribed, or continued on, two or more opioids or an opioid and benzodiazepine concurrently at discharge","usage":"Clinician judgement, clinical appropriateness, or both may indicate concurrent prescribing of two unique opioids or an opioid and benzodiazepine is medically necessary, thus the measure is not expected to have a zero rate. \n\nNew or continuing opioid and benzodiazepine medications are included with the use of the MedicationRequest QI-Core Profile. The Profile's community and discharge category codes indicate that the medications should be taken by or given to the patient after being discharged from an inpatient encounter, which could include previously or newly prescribed medications.\n\nInpatient hospitalizations with discharge medications of an opioid or benzodiazepine prescription should be included in the initial population. \n\nInpatient hospitalizations with discharge medications of two or more opioids or an opioid and benzodiazepine resulting in concurrent therapy at discharge should be included in the numerator. Each benzodiazepine and opioid included on the medication discharge list is considered a unique prescription.\n\nThe denominator population includes patients with inpatient hospitalizations and patients from Acute Hospital Care at Home programs, who are treated and billed as inpatients but receive care in their home.\n\nThis dQM is an episode-based measure. An episode is defined as each inpatient hospitalization or encounter that ends during the measurement period. \n\nThis FHIR-based measure has been derived from the QDM-based measure: CMS 506v8.0. Please refer to the HL7 QI-Core Implementation Guide (https://hl7.org/fhir/us/qicore/STU6/) for more information on QI-Core and mapping recommendations from QDM to QI-Core STU 6. (https://hl7.org/fhir/us/qicore/STU6/qdm-to-qicore.html).","copyright":"Limited proprietary coding is contained in the Measure specifications for user convenience. Users of proprietary code sets should obtain all necessary licenses from the owners of the code sets. Mathematica disclaims all liability for use or accuracy of any third-party codes contained in the specifications.\n\nCPT(R) contained in the measure specifications is copyright 2004-2024 American Medical Association. LOINC(R) copyright 2004-2024 Regenstrief Institute, Inc. This material contains SNOMED Clinical Terms(R) (SNOMED CT[R]) copyright 2004-2024 International Health Terminology Standards Development Organisation. ICD-10 copyright 2024 World Health Organization. All Rights Reserved.","effectivePeriod":{"start":"2026-01-01","end":"2026-12-31"},"author":[{"name":"Mathematica","telecom":[{"system":"url","value":"https://www.mathematica.org/"}]}],"relatedArtifact":[{"type":"citation","citation":"CITATION - American Academy of Emergency Medicine (AAEM). (2013). Emergency department opioid-prescribing guidelines for the treatment of non-cancer-related pain. Retrieved from https://www.aaem.org/UserFiles/file/Emergency-Department-Opoid-Prescribing-Guidelines.pdf\n"},{"type":"citation","citation":"CITATION - American Society of Interventional Pain Physicians (ASIPP). (2012). Guidelines for responsible opioid prescribing in chronic noncancer pain. Retrieved from https://pubmed.ncbi.nlm.nih.gov/22786449/\n"},{"type":"citation","citation":"CITATION - Dasgupta, N., Jonsson Funk, M., Proescholdbell, S., et al. (2015, September). Cohort study of the impact of high-dose opioid analgesics on overdose mortality. Pain Medicine. Retrieved from http://onlinelibrary.wiley.com/doi/10.1111/pme.12907/abstract  \n"},{"type":"citation","citation":"CITATION - Dowell, D., Haegerich, T., & Chou, R. (2016). CDC guideline for prescribing opioids for chronic pain-United States, 2016. MMWR Recommendations and Reports, 65. Retrieved from http://www.cdc.gov/media/dpk/2016/dpk-opioid-prescription-guidelines.html\n"},{"type":"citation","citation":"CITATION - Geller, A. I., Dowell, D., Lovegrove, M. C., Mcaninch, J. K., Goring, S. K., Rose, K. O., Budnitz, D. S. (2019). U.S. Emergency Department Visits Resulting From Nonmedical Use of Pharmaceuticals, 2016. American Journal of Preventive Medicine, 56(5), 639-647. https://doi.org/10.1016/j.amepre.2018.12.009\n"},{"type":"citation","citation":"CITATION - Herzig, S., Rothberg, M., Cheung, M., et al. (2014). Opioid utilization and opioid-related adverse events in nonsurgical patients in U.S. hospitals. Journal of Hospital Medicine, 9(2), 73-81.\n"},{"type":"citation","citation":"CITATION - Jena, A., Goldman, D., Schaeffer, L. D., et al. (2014). Opioid prescribing by multiple providers in Medicare: Retrospective observational study of insurance claims. BMJ, 348, g1393. DOI: 10.1136/bmj.g1393\n"},{"type":"citation","citation":"CITATION - Lin, L. A., Bohnert, A. S., Kerns, R. D., et al. (2017). Impact of the opioid safety initiative on opioid-related prescribing in veterans. Pain, 158(5), 833-839. Retrieved from https://www.ncbi.nlm.nih.gov/pubmed/28240996\n"},{"type":"citation","citation":"CITATION - Liu, Y., Logan, J., Paulozzi, L., et al. (2013). Potential misuse and inappropriate prescription practices involving opioid analgesics. American Journal of Managed Care, 19(8), 648-665. Retrieved from http://www.ajmc.com/journals/issue/2013/2013-1-vol19-n8/Potential-Misuse-and-Inappropriate-Prescription-Practices-Involving-Opioid-Analgesics/\n"},{"type":"citation","citation":"CITATION - Mack, K., Zhang, K., Paulozzi, L., et al. (2015, February). Prescription practices involving opioid analgesics among Americans with Medicaid, 2010. Journal of Health Care for the Poor and Underserved, 26(1), 182-198. Retrieved from http://www.ncbi.nlm.nih.gov/pmc/articles/PMC4365785\n"},{"type":"citation","citation":"CITATION - National Institute on Drug Abuse. (2011). Analysis of opioid prescription practices finds areas of concern. Retrieved from https://www.drugabuse.gov/news-events/news-releases/2011/04/analysis-opioid-prescription-practices-finds-areas-concern\n"},{"type":"citation","citation":"CITATION - New York City (NYC) Department of Health and Mental Hygiene (NYC DOHMH). (2013). NYC emergency department discharge opioid-prescribing guidelines. Retrieved from https://www1.nyc.gov/site/doh/providers/health-topics/opioid-prescribing-resources-for-emergency-departments.page\n"},{"type":"citation","citation":"CITATION - Park, T., Saitz, R., Ganoczy, D., et al. (2015). Benzodiazepine-prescribing patterns and deaths from drug overdose among U.S. veterans receiving opioid analgesics: Case-cohort study. BMJ, 350, h2698. Retrieved from http://www.bmj.com/content/350/bmj.h2698\n"},{"type":"citation","citation":"CITATION - Rudd, R., Aleshire, N., Zibbell, J., et al. (2016, January). Increases in drug and opioid overdose deaths-United States, 2000-2014. Morbidity and Mortality Weekly Report, 64(50), 1378-1382. Retrieved from http://www.cdc.gov/mmwr/preview/mmwrhtml/mm6450a3.htm\n"},{"type":"citation","citation":"CITATION - Sun, E., Dixit, A., Humphreys, K., et al. (2017). Association between concurrent use of prescription opioids and benzodiazepines and overdose: Retrospective analysis. BMJ, 356, j760. Retrieved from\nhttp://www.bmj.com/content/356/bmj.j760\n"},{"type":"citation","citation":"CITATION - U.S. Department of Veterans Affairs. (2014). Opioid safety initiative toolkit. Retrieved from https://www.va.gov/PAINMANAGEMENT/Opioid_Safety_Initiative_OSI.asp\n"},{"type":"citation","citation":"CITATION - U.S. Department of Veterans Affairs. (2016). Opioid safety initiative: Opioids (including tramadol) used in combination with benzodiazepine derivative sedatives/hypnotics. Unpublished manuscript.\n"},{"type":"citation","citation":"CITATION - Washington Agency Medical Directors' Group (WAMDG). (2015). Interagency guideline on prescribing opioids for pain, Part II: Prescribing opioids in the acute and subacute phase. Retrieved from http://www.agencymeddirectors.wa.gov/Files/2015AMDGOpioidGuideline.pdf\n"}],"library":["https://madie.cms.gov/Library/CMS506FHIRSafeUseofOpioids"],"disclaimer":"These performance measures are not clinical guidelines, do not establish a standard of medical care, and have not been tested for all potential applications.\n\nTHE MEASURES AND SPECIFICATION ARE PROVIDED AS IS WITHOUT WARRANTY OF ANY KIND.\n\nDue to technical limitations, registered trademarks are indicated by (R) or [R] and unregistered trademarks are indicated by (TM) or [TM].","rationale":"Unintentional opioid overdose fatalities have become a major public health concern in the United States (Rudd, Aleshire, Zibbel, & Gladden, 2016). Reducing the number of unintentional overdoses has become a priority for numerous federal organizations including, but not limited to, the Centers for Disease Control and Prevention (CDC), the Federal Interagency Workgroup for Opioid Adverse Drug Events, and the Substance Abuse and Mental Health Services Administration. \n\nConcurrent prescriptions of opioids or opioids and benzodiazepines places patients at a greater risk of unintentional overdose due to the increased risk of respiratory depression (Dowell, Haegerich, & Chou, 2016; Dowell, Ragan, Jones, Baldwin, & Chou, 2022). An analysis of national prescribing patterns shows that more than half of patients who received an opioid prescription in 2009 had filled another opioid prescription within the previous 30 days (National Institute on Drug Abuse, 2011). Studies of multiple claims and prescription databases have shown that between 5%-15% of patients receive concurrent opioid prescriptions and 5%-20% of patients receive concurrent opioid and benzodiazepine prescriptions across various settings (Liu et al., 2013; Mack et al., 2015, Park et al., 2015). Patients who have multiple opioid prescriptions have an increased risk for overdose (Jena et al., 2014). Rates of fatal overdose are ten times higher in patients who are co-dispensed opioid analgesics and benzodiazepines than opioids alone (Dasgupta et al., 2015). The number of opioid overdose deaths involving benzodiazepines increased 14% on average each year from 2006 to 2011, while the number of opioid analgesic overdose deaths not involving benzodiazepines did not change significantly (Jones & McAninch, 2015). Furthermore, concurrent use of benzodiazepines with opioids was prevalent in 31%-51% of fatal overdoses (Dowell, Haegerich, & Chou, 2016). One study found that eliminating concurrent use of opioids and benzodiazepines could reduce the risk of opioid overdose-related emergency department (ED) and inpatient visits by 15% and potentially could have prevented an estimated 2,630 deaths related to opioid painkiller overdoses in 2015 (Sun, Dixit, Humphreys, Darnall, & Mackey, 2017). \n\nA study on The Opioid Safety Initiative in the Veterans Health Administration (VHA), which includes an opioid and benzodiazepine concurrent prescribing measure that this measure is based on, was associated with a decrease of 20.67% overall and 0.86% patients per month (781 patients per month) receiving concurrent benzodiazepine with an opioid among all adult VHA patients who filled outpatient opioid prescriptions from October 2012 to September 2014 (Lin, Bohnert, Kerns, Clay, Ganoczy, & Ilgen, 2017).\n\nAdopting a measure that calculates the proportion of patients with two or more opioids or opioids and benzodiazepines concurrently has the potential to reduce preventable mortality and reduce the costs associated with adverse events related to opioid use by (1) encouraging providers to identify patients with concurrent prescriptions of opioids or opioids and benzodiazepines and (2) discouraging providers from prescribing two or more opioids or opioids and benzodiazepines concurrently.","clinicalRecommendationStatement":"The CDC Clinical Practice Guideline for Prescribing Opioids for Pain - United States, 2022 recommends that clinicians should:\n- \"[Use strategies minimizing] opioid use... for both opioid-naive and opioid-tolerant patients with acute pain when possible. If patients receiving long-term opioid therapy require additional medication for acute pain, nonopioid medications should be used when possible.\"\n- \"Use particular caution when prescribing opioid pain medication and benzodiazepines concurrently.\"\n- \"Review increased risks for respiratory depression when opioids are taken with benzodiazepines, other sedatives, alcohol, nonprescribed or illicit drugs (e.g., heroin), or other opioids (see Recommendations 8 and 11)\"\n- \"Closely monitor patients who are unable to taper and who continue on high-dose or otherwise high-risk opioid regimens (e.g., opioids prescribed concurrently with benzodiazepines) and should work with patients to mitigate overdose risk (e.g., by providing overdose education and naloxone) (see Recommendation 8).\"\n- \"Discuss information from the PDMP with the patient and confirm that the patient is aware of any additional prescriptions.\"\n- \"Discuss safety concerns, including increased risk for respiratory depression and overdose, with patients found to be receiving overlapping prescription opioids from multiple clinicians who are not coordinating the patient's care or patients who are receiving medications that increase risk when combined with opioids (e.g., benzodiazepines) (see Recommendation 11), and offer naloxone (see Recommendation 8).\"\n- \"Discuss safety concerns with other clinicians who are prescribing controlled substances for the patient. Ideally, clinicians should first discuss concerns with the patient and inform them that they plan to coordinate care with their other clinicians to improve the patient's safety.\"\n\nIn addition to the 2022 CDC Clinical Practice Guideline for Prescribing Opioids for Pain, opioid prescribing guidelines issued by various state agencies and professional societies for various settings agree with the recommendation to avoid concurrently prescribing opioids  (American Academy of Emergency Medicine (AAEM), 2013; and Washington Agency Medical Directors' Group (WAMDG), 2015), and opioids and benzodiazepines (WAMDG, 2015; American Society of Interventional Pain Physicians (ASIPP), 2012;, and New York City Department Of Health and Mental Hygiene (NYC DPOMH), 2013) whenever possible as the combination of these medications may potentiate opioid-induced respiratory depression.","group":[{"id":"Group_1","extension":[{"url":"http://hl7.org/fhir/us/cqfmeasures/StructureDefinition/cqfm-scoring","valueCodeableConcept":{"coding":[{"system":"http://terminology.hl7.org/CodeSystem/measure-scoring","code":"proportion","display":"Proportion"}]}},{"url":"http://hl7.org/fhir/us/cqfmeasures/StructureDefinition/cqfm-populationBasis","valueCode":"Encounter"},{"url":"http://hl7.org/fhir/us/cqfmeasures/StructureDefinition/cqfm-type","valueCodeableConcept":{"coding":[{"system":"http://terminology.hl7.org/CodeSystem/measure-type","code":"process","display":"Process"}]}},{"url":"http://hl7.org/fhir/us/cqfmeasures/StructureDefinition/cqfm-rateAggregation","valueCode":"None"},{"url":"http://hl7.org/fhir/us/cqfmeasures/StructureDefinition/cqfm-improvementNotation","valueCodeableConcept":{"coding":[{"system":"http://terminology.hl7.org/CodeSystem/measure-improvement-notation","code":"decrease","display":"Decreased score indicates improvement"}]}}],"population":[{"id":"InitialPopulation_1","code":{"coding":[{"system":"http://terminology.hl7.org/CodeSystem/measure-population","code":"initial-population","display":"Initial Population"}]},"description":"Inpatient hospitalizations that end during the measurement period, where the patient is 18 years of age and older at the start of the encounter and prescribed one opioid and/or benzodiazepine at discharge","criteria":{"language":"text/cql-identifier","expression":"Initial Population"}},{"id":"Denominator_1","code":{"coding":[{"system":"http://terminology.hl7.org/CodeSystem/measure-population","code":"denominator","display":"Denominator"}]},"description":"Equals Initial Population","criteria":{"language":"text/cql-identifier","expression":"Denominator"}},{"id":"DenominatorExclusion_1","code":{"coding":[{"system":"http://terminology.hl7.org/CodeSystem/measure-population","code":"denominator-exclusion","display":"Denominator Exclusion"}]},"description":"Inpatient hospitalizations where patients have cancer pain that begins prior to or during the encounter or are ordered or are receiving palliative or hospice care (including comfort measures, terminal care, and dying care) during the hospitalization or in an emergency department encounter or observation stay immediately prior to hospitalization, patients receiving medication for opioid use disorder (OUD) with active OUD diagnosis or Opioid Medication Assisted Treatment (MAT), patients with sickle cell disease, patients discharged to another inpatient care facility or left against medical advice, and patients who expire during the inpatient stay","criteria":{"language":"text/cql-identifier","expression":"Denominator Exclusion"}},{"id":"Numerator_1","code":{"coding":[{"system":"http://terminology.hl7.org/CodeSystem/measure-population","code":"numerator","display":"Numerator"}]},"description":"Inpatient hospitalizations where the patient is prescribed two or more opioids or an opioid and benzodiazepine at discharge","criteria":{"language":"text/cql-identifier","expression":"Numerator"}}]}],"supplementalData":[{"id":"sde-ethnicity","usage":[{"coding":[{"system":"http://terminology.hl7.org/CodeSystem/measure-data-usage","code":"supplemental-data"}]}],"description":"SDE Ethnicity","criteria":{"language":"text/cql-identifier","expression":"SDE Ethnicity"}},{"id":"sde-payer","usage":[{"coding":[{"system":"http://terminology.hl7.org/CodeSystem/measure-data-usage","code":"supplemental-data"}]}],"description":"SDE Payer","criteria":{"language":"text/cql-identifier","expression":"SDE Payer"}},{"id":"sde-race","usage":[{"coding":[{"system":"http://terminology.hl7.org/CodeSystem/measure-data-usage","code":"supplemental-data"}]}],"description":"SDE Race","criteria":{"language":"text/cql-identifier","expression":"SDE Race"}},{"id":"sde-sex","usage":[{"coding":[{"system":"http://terminology.hl7.org/CodeSystem/measure-data-usage","code":"supplemental-data"}]}],"description":"SDE Sex","criteria":{"language":"text/cql-identifier","expression":"SDE Sex"}}]},"request":{"method":"PUT","url":"Measure/CMS506FHIRSafeUseofOpioids"}}]}