{
  "resourceType": "Bundle",
  "id": "DENOMPass-RVNeuropathyDxPOA",
  "type": "transaction",
  "entry": [ {
    "fullUrl": "https://madie.cms.gov/Claim/f34367d1-fc59-49a1-b66b-cdc61fca876a",
    "resource": {
      "resourceType": "Claim",
      "id": "f34367d1-fc59-49a1-b66b-cdc61fca876a",
      "meta": {
        "profile": [ "http://hl7.org/fhir/us/qicore/StructureDefinition/qicore-claim" ]
      },
      "status": "active",
      "type": {
        "coding": [ {
          "system": "http://terminology.hl7.org/CodeSystem/claim-type",
          "code": "professional",
          "display": "Professional"
        } ]
      },
      "use": "claim",
      "patient": {
        "reference": "Patient/28684639-1aa3-429c-9cac-4e8217995b13"
      },
      "created": "2026-12-12",
      "provider": {
        "reference": "Practitioner/practitioner-1"
      },
      "priority": {
        "coding": [ {
          "system": "http://terminology.hl7.org/CodeSystem/processpriority",
          "code": "normal"
        } ]
      },
      "diagnosis": [ {
        "sequence": 1,
        "diagnosisCodeableConcept": {
          "coding": [ {
            "system": "http://hl7.org/fhir/sid/icd-10-cm",
            "code": "A52.15"
          } ]
        },
        "onAdmission": {
          "coding": [ {
            "system": "https://www.cms.gov/Medicare/Medicare-Fee-for-Service-Payment/HospitalAcqCond/Coding",
            "code": "Y"
          } ]
        }
      } ],
      "insurance": [ {
        "sequence": 1,
        "focal": true,
        "coverage": {
          "reference": "Coverage/coverage-1"
        }
      } ],
      "item": [ {
        "sequence": 1,
        "diagnosisSequence": [ 1, 2 ],
        "productOrService": {
          "coding": [ {
            "system": "http://terminology.hl7.org/CodeSystem/ex-USCLS",
            "code": "1101"
          } ]
        },
        "encounter": [ {
          "reference": "Encounter/bb0c4eca-b2e4-4490-8c55-fe8eeabbc4b0"
        } ]
      } ]
    },
    "request": {
      "method": "PUT",
      "url": "Claim/f34367d1-fc59-49a1-b66b-cdc61fca876a"
    }
  }, {
    "fullUrl": "https://madie.cms.gov/Patient/28684639-1aa3-429c-9cac-4e8217995b13",
    "resource": {
      "resourceType": "Patient",
      "id": "28684639-1aa3-429c-9cac-4e8217995b13",
      "meta": {
        "profile": [ "http://hl7.org/fhir/us/qicore/StructureDefinition/qicore-patient" ]
      },
      "extension": [ {
        "url": "http://hl7.org/fhir/us/core/StructureDefinition/us-core-race",
        "extension": [ {
          "url": "ombCategory",
          "valueCoding": {
            "system": "urn:oid:2.16.840.1.113883.6.238",
            "code": "1002-5",
            "display": "American Indian or Alaska Native",
            "userSelected": true
          }
        }, {
          "url": "text",
          "valueString": "American Indian or Alaska Native"
        } ]
      }, {
        "url": "http://hl7.org/fhir/us/core/StructureDefinition/us-core-ethnicity",
        "extension": [ {
          "url": "ombCategory",
          "valueCoding": {
            "system": "urn:oid:2.16.840.1.113883.6.238",
            "code": "2135-2",
            "display": "Hispanic or Latino",
            "userSelected": true
          }
        }, {
          "url": "text",
          "valueString": "Hispanic or Latino"
        } ]
      } ],
      "identifier": [ {
        "type": {
          "coding": [ {
            "system": "http://terminology.hl7.org/CodeSystem/v2-0203",
            "code": "MR"
          } ]
        },
        "system": "https://bonnie-fhir.healthit.gov/",
        "value": "61152a3b98086b7a79cbd7c1"
      } ],
      "active": true,
      "name": [ {
        "use": "usual",
        "family": "DENOMPass",
        "given": [ "RVDeliriumDxPOA" ]
      } ],
      "gender": "female",
      "birthDate": "1964-12-11"
    },
    "request": {
      "method": "PUT",
      "url": "Patient/28684639-1aa3-429c-9cac-4e8217995b13"
    }
  }, {
    "fullUrl": "https://madie.cms.gov/Encounter/bb0c4eca-b2e4-4490-8c55-fe8eeabbc4b0",
    "resource": {
      "resourceType": "Encounter",
      "id": "bb0c4eca-b2e4-4490-8c55-fe8eeabbc4b0",
      "meta": {
        "profile": [ "http://hl7.org/fhir/us/qicore/StructureDefinition/qicore-encounter" ]
      },
      "status": "finished",
      "class": {
        "system": "http://terminology.hl7.org/CodeSystem/v3-ActCode",
        "code": "IMP",
        "display": "inpatient encounter"
      },
      "type": [ {
        "coding": [ {
          "system": "http://snomed.info/sct",
          "code": "183452005",
          "display": "Emergency hospital admission"
        } ]
      } ],
      "subject": {
        "reference": "Patient/28684639-1aa3-429c-9cac-4e8217995b13"
      },
      "period": {
        "start": "2026-11-12T08:00:00.000+00:00",
        "end": "2026-11-18T08:01:00.000+00:00"
      },
      "length": {
        "value": 6,
        "unit": "days"
      }
    },
    "request": {
      "method": "PUT",
      "url": "Encounter/bb0c4eca-b2e4-4490-8c55-fe8eeabbc4b0"
    }
  }, {
    "fullUrl": "https://madie.cms.gov/Practitioner/466b0bec-40eb-4508-9c96-6e4f422d1e68",
    "resource": {
      "resourceType": "Practitioner",
      "id": "466b0bec-40eb-4508-9c96-6e4f422d1e68",
      "identifier": [ {
        "system": "http://www.cms.gov/identifiers/pracitioners",
        "value": "P12345"
      } ],
      "name": [ {
        "use": "official",
        "family": "Smith",
        "given": [ "John" ]
      } ],
      "qualification": [ {
        "identifier": [ {
          "system": "http://hl7.org/fhir/sid/us-npi",
          "value": "1234567890"
        } ],
        "code": {
          "coding": [ {
            "system": "http://terminology.hl7.org/CodeSystem/v2-0203",
            "code": "MD",
            "display": "Medical License number"
          } ]
        }
      } ]
    },
    "request": {
      "method": "PUT",
      "url": "Practitioner/466b0bec-40eb-4508-9c96-6e4f422d1e68"
    }
  }, {
    "fullUrl": "https://madie.cms.gov/Coverage/0393ce68-ec05-41be-a972-a15a60a39118",
    "resource": {
      "resourceType": "Coverage",
      "id": "0393ce68-ec05-41be-a972-a15a60a39118",
      "status": "active",
      "beneficiary": {
        "reference": "Patient/28684639-1aa3-429c-9cac-4e8217995b13"
      },
      "payor": [ {
        "reference": "Organization/74ce44e7-73b9-41d6-8c9d-32ef4929c5f6"
      } ]
    },
    "request": {
      "method": "PUT",
      "url": "Coverage/0393ce68-ec05-41be-a972-a15a60a39118"
    }
  }, {
    "fullUrl": "https://madie.cms.gov/Organization/74ce44e7-73b9-41d6-8c9d-32ef4929c5f6",
    "resource": {
      "resourceType": "Organization",
      "id": "74ce44e7-73b9-41d6-8c9d-32ef4929c5f6",
      "identifier": [ {
        "system": "http://cms.gov/insurance-ids",
        "value": "AET12345"
      } ],
      "type": [ {
        "coding": [ {
          "system": "http://terminology.hl7.org/CodeSystem/organization-type",
          "code": "prov",
          "display": "Healthcare Provider"
        } ]
      } ],
      "name": "Aetna Insurance",
      "telecom": [ {
        "system": "phone",
        "value": "+1-800-123-4567"
      } ],
      "address": [ {
        "line": [ "123 Main Street" ],
        "city": "Cityville",
        "state": "CA",
        "postalCode": "12345",
        "country": "USA"
      } ]
    },
    "request": {
      "method": "PUT",
      "url": "Organization/74ce44e7-73b9-41d6-8c9d-32ef4929c5f6"
    }
  }, {
    "fullUrl": "https://madie.cms.gov/MeasureReport/7afc7ba7-e044-4f0e-b905-93d29821ec2a",
    "resource": {
      "resourceType": "MeasureReport",
      "id": "7afc7ba7-e044-4f0e-b905-93d29821ec2a",
      "meta": {
        "profile": [ "http://hl7.org/fhir/us/cqfmeasures/StructureDefinition/test-case-cqfm" ]
      },
      "contained": [ {
        "resourceType": "Parameters",
        "id": "97543212-c899-4583-8164-cab2810d3d73-parameters",
        "parameter": [ {
          "name": "subject",
          "valueString": "28684639-1aa3-429c-9cac-4e8217995b13"
        } ]
      } ],
      "extension": [ {
        "url": "http://hl7.org/fhir/StructureDefinition/cqf-inputParameters",
        "valueReference": {
          "reference": "#97543212-c899-4583-8164-cab2810d3d73-parameters"
        }
      }, {
        "url": "http://hl7.org/fhir/us/cqfmeasures/StructureDefinition/cqfm-testCaseDescription",
        "valueMarkdown": "Encounter with Neuropathy Present dx POA = Y. Meets RV"
      } ],
      "modifierExtension": [ {
        "url": "http://hl7.org/fhir/us/cqfmeasures/StructureDefinition/cqfm-isTestCase",
        "valueBoolean": true
      } ],
      "status": "complete",
      "type": "individual",
      "measure": "https://madie.cms.gov/Measure/CMS1017FHIRHHFI",
      "period": {
        "start": "2026-01-01",
        "end": "2026-12-31"
      },
      "group": [ {
        "id": "Group_1",
        "population": [ {
          "id": "InitialPopulation_1",
          "code": {
            "coding": [ {
              "system": "http://terminology.hl7.org/CodeSystem/measure-population",
              "code": "initial-population",
              "display": "Initial Population"
            } ]
          },
          "count": 1
        }, {
          "id": "Denominator_1",
          "code": {
            "coding": [ {
              "system": "http://terminology.hl7.org/CodeSystem/measure-population",
              "code": "denominator",
              "display": "Denominator"
            } ]
          },
          "count": 1
        }, {
          "id": "DenominatorExclusion_1",
          "code": {
            "coding": [ {
              "system": "http://terminology.hl7.org/CodeSystem/measure-population",
              "code": "denominator-exclusion",
              "display": "Denominator Exclusion"
            } ]
          },
          "count": 0
        }, {
          "id": "Numerator_1",
          "code": {
            "coding": [ {
              "system": "http://terminology.hl7.org/CodeSystem/measure-population",
              "code": "numerator",
              "display": "Numerator"
            } ]
          },
          "count": 0
        }, {
          "id": "NumeratorExclusion_1",
          "code": {
            "coding": [ {
              "system": "http://terminology.hl7.org/CodeSystem/measure-population",
              "code": "numerator-exclusion",
              "display": "Numerator Exclusion"
            } ]
          },
          "count": 0
        }, {
          "id": "MeasureObservation_1_1_1",
          "code": {
            "coding": [ {
              "system": "http://terminology.hl7.org/CodeSystem/measure-population",
              "code": "measure-observation",
              "display": "Measure Observation"
            } ]
          },
          "count": 6
        } ],
        "measureScore": {
          "value": 0.0
        }
      } ],
      "evaluatedResource": [ {
        "reference": "Claim/f34367d1-fc59-49a1-b66b-cdc61fca876a"
      }, {
        "reference": "Patient/28684639-1aa3-429c-9cac-4e8217995b13"
      }, {
        "reference": "Encounter/bb0c4eca-b2e4-4490-8c55-fe8eeabbc4b0"
      }, {
        "reference": "Practitioner/466b0bec-40eb-4508-9c96-6e4f422d1e68"
      }, {
        "reference": "Coverage/0393ce68-ec05-41be-a972-a15a60a39118"
      }, {
        "reference": "Organization/74ce44e7-73b9-41d6-8c9d-32ef4929c5f6"
      } ]
    },
    "request": {
      "method": "PUT",
      "url": "MeasureReport/7afc7ba7-e044-4f0e-b905-93d29821ec2a"
    }
  } ]
}