{
  "resourceType": "Bundle",
  "id": "tests-NumerPass-RVwithAntidepressantOrderAtAdmission-bundle",
  "type": "transaction",
  "entry": [ {
    "fullUrl": "https://madie.cms.gov/Encounter/61196e05-752f-452c-9dc2-8ff581e70779",
    "resource": {
      "resourceType": "Encounter",
      "id": "61196e05-752f-452c-9dc2-8ff581e70779",
      "meta": {
        "profile": [ "http://hl7.org/fhir/us/qicore/StructureDefinition/qicore-encounter" ]
      },
      "status": "finished",
      "class": {
        "system": "http://terminology.hl7.org/CodeSystem/v3-ActCode",
        "code": "IMP",
        "display": "inpatient encounter"
      },
      "type": [ {
        "coding": [ {
          "system": "http://snomed.info/sct",
          "code": "183452005"
        } ]
      } ],
      "subject": {
        "reference": "Patient/a2b51ea0-5a72-4bda-abe5-dd393bfa0545"
      },
      "period": {
        "start": "2026-10-19T08:30:00.000+00:00",
        "end": "2026-10-31T08:15:00.000+00:00"
      },
      "reasonCode": [ {
        "coding": [ {
          "system": "http://snomed.info/sct",
          "code": "14047009"
        } ]
      }, {
        "coding": [ {
          "system": "http://snomed.info/sct",
          "code": "64859006"
        } ]
      } ]
    },
    "request": {
      "method": "PUT",
      "url": "Encounter/61196e05-752f-452c-9dc2-8ff581e70779"
    }
  }, {
    "fullUrl": "https://madie.cms.gov/Encounter/2ae6964c-48b4-4e95-9d9c-9de04dcc2b87",
    "resource": {
      "resourceType": "Encounter",
      "id": "2ae6964c-48b4-4e95-9d9c-9de04dcc2b87",
      "meta": {
        "profile": [ "http://hl7.org/fhir/us/qicore/StructureDefinition/qicore-encounter" ]
      },
      "status": "finished",
      "class": {
        "system": "http://terminology.hl7.org/CodeSystem/v3-ActCode",
        "code": "EMER",
        "display": "emergency encounter"
      },
      "type": [ {
        "coding": [ {
          "system": "http://snomed.info/sct",
          "code": "4525004"
        } ]
      } ],
      "subject": {
        "reference": "Patient/a2b51ea0-5a72-4bda-abe5-dd393bfa0545"
      },
      "period": {
        "start": "2026-10-18T09:15:00.000+00:00",
        "end": "2026-10-19T08:15:00.000+00:00"
      }
    },
    "request": {
      "method": "PUT",
      "url": "Encounter/2ae6964c-48b4-4e95-9d9c-9de04dcc2b87"
    }
  }, {
    "fullUrl": "https://madie.cms.gov/Patient/a2b51ea0-5a72-4bda-abe5-dd393bfa0545",
    "resource": {
      "resourceType": "Patient",
      "id": "a2b51ea0-5a72-4bda-abe5-dd393bfa0545",
      "meta": {
        "profile": [ "http://hl7.org/fhir/us/qicore/StructureDefinition/qicore-patient" ]
      },
      "extension": [ {
        "url": "http://hl7.org/fhir/us/core/StructureDefinition/us-core-race",
        "extension": [ {
          "url": "ombCategory",
          "valueCoding": {
            "system": "urn:oid:2.16.840.1.113883.6.238",
            "code": "2106-3",
            "display": "White"
          }
        }, {
          "url": "text",
          "valueString": "White"
        } ]
      }, {
        "url": "http://hl7.org/fhir/us/core/StructureDefinition/us-core-ethnicity",
        "extension": [ {
          "url": "ombCategory",
          "valueCoding": {
            "system": "urn:oid:2.16.840.1.113883.6.238",
            "code": "2135-2",
            "display": "Hispanic or Latino"
          }
        }, {
          "url": "text",
          "valueString": "Hispanic or Latino"
        } ]
      }, {
        "url": "http://hl7.org/fhir/us/core/StructureDefinition/us-core-sex",
        "valueCode": "248153007"
      } ],
      "identifier": [ {
        "system": "http://hospital.smarthealthit.org",
        "value": "999999999"
      } ],
      "name": [ {
        "family": "Example",
        "given": [ "Patient" ]
      } ],
      "gender": "female",
      "birthDate": "1956-01-01"
    },
    "request": {
      "method": "PUT",
      "url": "Patient/a2b51ea0-5a72-4bda-abe5-dd393bfa0545"
    }
  }, {
    "fullUrl": "https://madie.cms.gov/Claim/b69a1eae-b37d-4436-85fa-86164fa54ef8",
    "resource": {
      "resourceType": "Claim",
      "id": "b69a1eae-b37d-4436-85fa-86164fa54ef8",
      "meta": {
        "profile": [ "http://hl7.org/fhir/us/qicore/StructureDefinition/qicore-claim" ]
      },
      "status": "active",
      "type": {
        "coding": [ {
          "system": "http://terminology.hl7.org/CodeSystem/claim-type",
          "code": "institutional",
          "display": "Institutional"
        } ]
      },
      "use": "claim",
      "patient": {
        "reference": "Patient/a2b51ea0-5a72-4bda-abe5-dd393bfa0545"
      },
      "created": "2026-10-22",
      "provider": {
        "reference": "Practitioner/practitioner-1"
      },
      "priority": {
        "coding": [ {
          "system": "http://terminology.hl7.org/CodeSystem/processpriority",
          "code": "normal"
        } ]
      },
      "diagnosis": [ {
        "sequence": 1,
        "diagnosisCodeableConcept": {
          "coding": [ {
            "system": "http://snomed.info/sct",
            "code": "14047009"
          } ]
        }
      } ],
      "insurance": [ {
        "sequence": 1,
        "focal": true,
        "coverage": {
          "reference": "Coverage/coverage-1"
        }
      } ],
      "item": [ {
        "sequence": 1,
        "diagnosisSequence": [ 1, 2 ],
        "productOrService": {
          "coding": [ {
            "system": "http://terminology.hl7.org/CodeSystem/ex-USCLS",
            "code": "1101"
          } ]
        },
        "encounter": [ {
          "reference": "Encounter/61196e05-752f-452c-9dc2-8ff581e70779"
        } ]
      } ]
    },
    "request": {
      "method": "PUT",
      "url": "Claim/b69a1eae-b37d-4436-85fa-86164fa54ef8"
    }
  }, {
    "fullUrl": "https://madie.cms.gov/Claim/b1ad1b4d-ae42-4092-b4f4-9c7fda48d2d4",
    "resource": {
      "resourceType": "Claim",
      "id": "b1ad1b4d-ae42-4092-b4f4-9c7fda48d2d4",
      "meta": {
        "profile": [ "http://hl7.org/fhir/us/qicore/StructureDefinition/qicore-claim" ]
      },
      "status": "active",
      "type": {
        "coding": [ {
          "system": "http://terminology.hl7.org/CodeSystem/claim-type",
          "code": "institutional",
          "display": "Institutional"
        } ]
      },
      "use": "claim",
      "patient": {
        "reference": "Patient/a2b51ea0-5a72-4bda-abe5-dd393bfa0545"
      },
      "created": "2026-11-01",
      "provider": {
        "reference": "Practitioner/practitioner-1"
      },
      "priority": {
        "coding": [ {
          "system": "http://terminology.hl7.org/CodeSystem/processpriority",
          "code": "normal"
        } ]
      },
      "diagnosis": [ {
        "sequence": 1,
        "diagnosisCodeableConcept": {
          "coding": [ {
            "system": "http://hl7.org/fhir/sid/icd-10-cm",
            "code": "M80.00XA",
            "display": "Age-related osteoporosis with current pathological fracture, unspecified site, initial encounter for fracture"
          } ]
        }
      } ],
      "insurance": [ {
        "sequence": 1,
        "focal": true,
        "coverage": {
          "reference": "Coverage/coverage-1"
        }
      } ],
      "item": [ {
        "sequence": 1,
        "diagnosisSequence": [ 1, 2 ],
        "productOrService": {
          "coding": [ {
            "system": "http://terminology.hl7.org/CodeSystem/ex-USCLS",
            "code": "1101"
          } ]
        },
        "encounter": [ {
          "reference": "Encounter/61196e05-752f-452c-9dc2-8ff581e70779"
        } ]
      } ]
    },
    "request": {
      "method": "PUT",
      "url": "Claim/b1ad1b4d-ae42-4092-b4f4-9c7fda48d2d4"
    }
  }, {
    "fullUrl": "https://madie.cms.gov/MedicationRequest/cc00bbc1-2b06-40d7-8d4d-14c3101dc4a0",
    "resource": {
      "resourceType": "MedicationRequest",
      "id": "cc00bbc1-2b06-40d7-8d4d-14c3101dc4a0",
      "meta": {
        "profile": [ "http://hl7.org/fhir/us/qicore/StructureDefinition/qicore-medicationrequest" ]
      },
      "status": "active",
      "intent": "order",
      "category": [ {
        "coding": [ {
          "system": "http://terminology.hl7.org/CodeSystem/medicationrequest-category",
          "code": "community",
          "display": "Community"
        } ]
      } ],
      "medicationCodeableConcept": {
        "coding": [ {
          "system": "http://www.nlm.nih.gov/research/umls/rxnorm",
          "code": "1000048"
        } ]
      },
      "subject": {
        "reference": "Patient/a2b51ea0-5a72-4bda-abe5-dd393bfa0545"
      },
      "authoredOn": "2026-10-15",
      "dispenseRequest": {
        "quantity": {
          "value": 14,
          "unit": "tablet",
          "system": "http://unitsofmeasure.org",
          "code": "{tablet}"
        },
        "expectedSupplyDuration": {
          "value": 14,
          "unit": "days",
          "system": "http://unitsofmeasure.org",
          "code": "d"
        }
      }
    },
    "request": {
      "method": "PUT",
      "url": "MedicationRequest/cc00bbc1-2b06-40d7-8d4d-14c3101dc4a0"
    }
  }, {
    "fullUrl": "https://madie.cms.gov/Practitioner/8f4dc9aa-7d38-4b66-be00-951416d4b3f5",
    "resource": {
      "resourceType": "Practitioner",
      "id": "8f4dc9aa-7d38-4b66-be00-951416d4b3f5",
      "identifier": [ {
        "system": "http://www.cms.gov/identifiers/pracitioners",
        "value": "P12345"
      } ],
      "name": [ {
        "use": "official",
        "family": "Smith",
        "given": [ "John" ]
      } ],
      "qualification": [ {
        "identifier": [ {
          "system": "http://hl7.org/fhir/sid/us-npi",
          "value": "1234567890"
        } ],
        "code": {
          "coding": [ {
            "system": "http://terminology.hl7.org/CodeSystem/v2-0203",
            "code": "MD",
            "display": "Medical License number"
          } ]
        }
      } ]
    },
    "request": {
      "method": "PUT",
      "url": "Practitioner/8f4dc9aa-7d38-4b66-be00-951416d4b3f5"
    }
  }, {
    "fullUrl": "https://madie.cms.gov/Coverage/6b018935-f020-4a66-912e-d11af9f0d6eb",
    "resource": {
      "resourceType": "Coverage",
      "id": "6b018935-f020-4a66-912e-d11af9f0d6eb",
      "status": "active",
      "beneficiary": {
        "reference": "Patient/a2b51ea0-5a72-4bda-abe5-dd393bfa0545"
      },
      "payor": [ {
        "reference": "Organization/72e895c2-9b8d-42e9-81e8-5e40e8156e2e"
      } ]
    },
    "request": {
      "method": "PUT",
      "url": "Coverage/6b018935-f020-4a66-912e-d11af9f0d6eb"
    }
  }, {
    "fullUrl": "https://madie.cms.gov/Organization/72e895c2-9b8d-42e9-81e8-5e40e8156e2e",
    "resource": {
      "resourceType": "Organization",
      "id": "72e895c2-9b8d-42e9-81e8-5e40e8156e2e",
      "identifier": [ {
        "system": "http://cms.gov/insurance-ids",
        "value": "AET12345"
      } ],
      "type": [ {
        "coding": [ {
          "system": "http://terminology.hl7.org/CodeSystem/organization-type",
          "code": "prov",
          "display": "Healthcare Provider"
        } ]
      } ],
      "name": "Aetna Insurance",
      "telecom": [ {
        "system": "phone",
        "value": "+1-800-123-4567"
      } ],
      "address": [ {
        "line": [ "123 Main Street" ],
        "city": "Cityville",
        "state": "CA",
        "postalCode": "12345",
        "country": "USA"
      } ]
    },
    "request": {
      "method": "PUT",
      "url": "Organization/72e895c2-9b8d-42e9-81e8-5e40e8156e2e"
    }
  }, {
    "fullUrl": "https://madie.cms.gov/MeasureReport/d682e94c-9e1d-43f2-ba83-548af136cec6",
    "resource": {
      "resourceType": "MeasureReport",
      "id": "d682e94c-9e1d-43f2-ba83-548af136cec6",
      "meta": {
        "profile": [ "http://hl7.org/fhir/us/cqfmeasures/StructureDefinition/test-case-cqfm" ]
      },
      "contained": [ {
        "resourceType": "Parameters",
        "id": "ff09dd9d-7bc5-4123-9521-c86f17f98b1f-parameters",
        "parameter": [ {
          "name": "subject",
          "valueString": "a2b51ea0-5a72-4bda-abe5-dd393bfa0545"
        } ]
      } ],
      "extension": [ {
        "url": "http://hl7.org/fhir/StructureDefinition/cqf-inputParameters",
        "valueReference": {
          "reference": "#ff09dd9d-7bc5-4123-9521-c86f17f98b1f-parameters"
        }
      }, {
        "url": "http://hl7.org/fhir/us/cqfmeasures/StructureDefinition/cqfm-testCaseDescription",
        "valueMarkdown": "RVariable Encounter With CNSdepressant/Antidepressant Order At Admission"
      } ],
      "modifierExtension": [ {
        "url": "http://hl7.org/fhir/us/cqfmeasures/StructureDefinition/cqfm-isTestCase",
        "valueBoolean": true
      } ],
      "status": "complete",
      "type": "individual",
      "measure": "https://madie.cms.gov/Measure/CMS1017FHIRHHFI",
      "period": {
        "start": "2026-01-01",
        "end": "2026-12-31"
      },
      "group": [ {
        "id": "Group_1",
        "population": [ {
          "id": "InitialPopulation_1",
          "code": {
            "coding": [ {
              "system": "http://terminology.hl7.org/CodeSystem/measure-population",
              "code": "initial-population",
              "display": "Initial Population"
            } ]
          },
          "count": 1
        }, {
          "id": "Denominator_1",
          "code": {
            "coding": [ {
              "system": "http://terminology.hl7.org/CodeSystem/measure-population",
              "code": "denominator",
              "display": "Denominator"
            } ]
          },
          "count": 1
        }, {
          "id": "DenominatorExclusion_1",
          "code": {
            "coding": [ {
              "system": "http://terminology.hl7.org/CodeSystem/measure-population",
              "code": "denominator-exclusion",
              "display": "Denominator Exclusion"
            } ]
          },
          "count": 0
        }, {
          "id": "Numerator_1",
          "code": {
            "coding": [ {
              "system": "http://terminology.hl7.org/CodeSystem/measure-population",
              "code": "numerator",
              "display": "Numerator"
            } ]
          },
          "count": 1
        }, {
          "id": "NumeratorExclusion_1",
          "code": {
            "coding": [ {
              "system": "http://terminology.hl7.org/CodeSystem/measure-population",
              "code": "numerator-exclusion",
              "display": "Numerator Exclusion"
            } ]
          },
          "count": 0
        }, {
          "id": "MeasureObservation_1_1_1",
          "code": {
            "coding": [ {
              "system": "http://terminology.hl7.org/CodeSystem/measure-population",
              "code": "measure-observation",
              "display": "Measure Observation"
            } ]
          },
          "count": 12
        }, {
          "id": "MeasureObservation_1_2_1",
          "code": {
            "coding": [ {
              "system": "http://terminology.hl7.org/CodeSystem/measure-population",
              "code": "measure-observation",
              "display": "Measure Observation"
            } ]
          },
          "count": 1
        } ],
        "measureScore": {
          "value": 0.0
        }
      } ],
      "evaluatedResource": [ {
        "reference": "Encounter/61196e05-752f-452c-9dc2-8ff581e70779"
      }, {
        "reference": "Encounter/2ae6964c-48b4-4e95-9d9c-9de04dcc2b87"
      }, {
        "reference": "Patient/a2b51ea0-5a72-4bda-abe5-dd393bfa0545"
      }, {
        "reference": "Claim/b69a1eae-b37d-4436-85fa-86164fa54ef8"
      }, {
        "reference": "Claim/b1ad1b4d-ae42-4092-b4f4-9c7fda48d2d4"
      }, {
        "reference": "MedicationRequest/cc00bbc1-2b06-40d7-8d4d-14c3101dc4a0"
      }, {
        "reference": "Practitioner/8f4dc9aa-7d38-4b66-be00-951416d4b3f5"
      }, {
        "reference": "Coverage/6b018935-f020-4a66-912e-d11af9f0d6eb"
      }, {
        "reference": "Organization/72e895c2-9b8d-42e9-81e8-5e40e8156e2e"
      } ]
    },
    "request": {
      "method": "PUT",
      "url": "MeasureReport/d682e94c-9e1d-43f2-ba83-548af136cec6"
    }
  } ]
}