{
  "resourceType": "Bundle",
  "id": "OBSERVFail-DenomMeasObsFailsLT1day",
  "type": "transaction",
  "entry": [ {
    "fullUrl": "https://madie.cms.gov/Encounter/a3b17c0f-276c-4a8e-93ad-3628a56813c6",
    "resource": {
      "resourceType": "Encounter",
      "id": "a3b17c0f-276c-4a8e-93ad-3628a56813c6",
      "meta": {
        "profile": [ "http://hl7.org/fhir/us/qicore/StructureDefinition/qicore-encounter" ]
      },
      "status": "finished",
      "class": {
        "system": "http://terminology.hl7.org/CodeSystem/v3-ActCode",
        "code": "IMP",
        "display": "inpatient encounter"
      },
      "type": [ {
        "coding": [ {
          "system": "http://snomed.info/sct",
          "code": "183452005"
        } ]
      } ],
      "subject": {
        "reference": "Patient/c04e2f24-703c-4999-a9b7-ca1d65aac5b5"
      },
      "period": {
        "start": "2026-11-12T08:00:00.000+00:00",
        "end": "2026-11-13T07:59:00.000+00:00"
      }
    },
    "request": {
      "method": "PUT",
      "url": "Encounter/a3b17c0f-276c-4a8e-93ad-3628a56813c6"
    }
  }, {
    "fullUrl": "https://madie.cms.gov/Patient/c04e2f24-703c-4999-a9b7-ca1d65aac5b5",
    "resource": {
      "resourceType": "Patient",
      "id": "c04e2f24-703c-4999-a9b7-ca1d65aac5b5",
      "meta": {
        "profile": [ "http://hl7.org/fhir/us/qicore/StructureDefinition/qicore-patient" ]
      },
      "extension": [ {
        "url": "http://hl7.org/fhir/us/core/StructureDefinition/us-core-race",
        "extension": [ {
          "url": "ombCategory",
          "valueCoding": {
            "system": "urn:oid:2.16.840.1.113883.6.238",
            "code": "2054-5",
            "display": "Black or African American",
            "userSelected": true
          }
        }, {
          "url": "text",
          "valueString": "Black or African American"
        } ]
      }, {
        "url": "http://hl7.org/fhir/us/core/StructureDefinition/us-core-ethnicity",
        "extension": [ {
          "url": "ombCategory",
          "valueCoding": {
            "system": "urn:oid:2.16.840.1.113883.6.238",
            "code": "2186-5",
            "display": "Not Hispanic or Latino",
            "userSelected": true
          }
        }, {
          "url": "text",
          "valueString": "Not Hispanic or Latino"
        } ]
      } ],
      "identifier": [ {
        "type": {
          "coding": [ {
            "system": "http://terminology.hl7.org/CodeSystem/v2-0203",
            "code": "MR"
          } ]
        },
        "system": "https://bonnie-fhir.healthit.gov/",
        "value": "61152a3b98086b7a79cbd7c1"
      } ],
      "active": true,
      "name": [ {
        "use": "usual",
        "family": "OBSERVFail",
        "given": [ "DenomMeasObsFailsLT1day" ]
      } ],
      "gender": "male",
      "birthDate": "1964-12-11"
    },
    "request": {
      "method": "PUT",
      "url": "Patient/c04e2f24-703c-4999-a9b7-ca1d65aac5b5"
    }
  }, {
    "fullUrl": "https://madie.cms.gov/MeasureReport/d6f30dfa-7ffc-4520-9245-0faa1d13a1c8",
    "resource": {
      "resourceType": "MeasureReport",
      "id": "d6f30dfa-7ffc-4520-9245-0faa1d13a1c8",
      "meta": {
        "profile": [ "http://hl7.org/fhir/us/cqfmeasures/StructureDefinition/test-case-cqfm" ]
      },
      "contained": [ {
        "resourceType": "Parameters",
        "id": "d11cc6ec-2134-417d-86f7-a12d6c60e4c9-parameters",
        "parameter": [ {
          "name": "subject",
          "valueString": "c04e2f24-703c-4999-a9b7-ca1d65aac5b5"
        } ]
      } ],
      "extension": [ {
        "url": "http://hl7.org/fhir/StructureDefinition/cqf-inputParameters",
        "valueReference": {
          "reference": "#d11cc6ec-2134-417d-86f7-a12d6c60e4c9-parameters"
        }
      }, {
        "url": "http://hl7.org/fhir/us/cqfmeasures/StructureDefinition/cqfm-testCaseDescription",
        "valueMarkdown": "Sum of days (Denom Meas Obs) = 0. As expected. LOS < 1day."
      } ],
      "modifierExtension": [ {
        "url": "http://hl7.org/fhir/us/cqfmeasures/StructureDefinition/cqfm-isTestCase",
        "valueBoolean": true
      } ],
      "status": "complete",
      "type": "individual",
      "measure": "https://madie.cms.gov/Measure/CMS1017FHIRHHFI",
      "period": {
        "start": "2026-01-01",
        "end": "2026-12-31"
      },
      "group": [ {
        "id": "Group_1",
        "population": [ {
          "id": "InitialPopulation_1",
          "code": {
            "coding": [ {
              "system": "http://terminology.hl7.org/CodeSystem/measure-population",
              "code": "initial-population",
              "display": "Initial Population"
            } ]
          },
          "count": 1
        }, {
          "id": "Denominator_1",
          "code": {
            "coding": [ {
              "system": "http://terminology.hl7.org/CodeSystem/measure-population",
              "code": "denominator",
              "display": "Denominator"
            } ]
          },
          "count": 1
        }, {
          "id": "DenominatorExclusion_1",
          "code": {
            "coding": [ {
              "system": "http://terminology.hl7.org/CodeSystem/measure-population",
              "code": "denominator-exclusion",
              "display": "Denominator Exclusion"
            } ]
          },
          "count": 0
        }, {
          "id": "Numerator_1",
          "code": {
            "coding": [ {
              "system": "http://terminology.hl7.org/CodeSystem/measure-population",
              "code": "numerator",
              "display": "Numerator"
            } ]
          },
          "count": 0
        }, {
          "id": "NumeratorExclusion_1",
          "code": {
            "coding": [ {
              "system": "http://terminology.hl7.org/CodeSystem/measure-population",
              "code": "numerator-exclusion",
              "display": "Numerator Exclusion"
            } ]
          },
          "count": 0
        }, {
          "id": "MeasureObservation_1_1_1",
          "code": {
            "coding": [ {
              "system": "http://terminology.hl7.org/CodeSystem/measure-population",
              "code": "measure-observation",
              "display": "Measure Observation"
            } ]
          },
          "count": 0
        } ],
        "measureScore": {
          "value": 0.0
        }
      } ],
      "evaluatedResource": [ {
        "reference": "Encounter/a3b17c0f-276c-4a8e-93ad-3628a56813c6"
      }, {
        "reference": "Patient/c04e2f24-703c-4999-a9b7-ca1d65aac5b5"
      } ]
    },
    "request": {
      "method": "PUT",
      "url": "MeasureReport/d6f30dfa-7ffc-4520-9245-0faa1d13a1c8"
    }
  } ]
}