{
  "resourceType": "Bundle",
  "id": "NUMERFail-FallNPOANoInjury",
  "type": "transaction",
  "entry": [ {
    "fullUrl": "https://madie.cms.gov/Encounter/ddef025e-5b3e-4a0e-b613-dd1163292662",
    "resource": {
      "resourceType": "Encounter",
      "id": "ddef025e-5b3e-4a0e-b613-dd1163292662",
      "meta": {
        "profile": [ "http://hl7.org/fhir/us/qicore/StructureDefinition/qicore-encounter" ]
      },
      "status": "finished",
      "class": {
        "system": "http://terminology.hl7.org/CodeSystem/v3-ActCode",
        "code": "IMP",
        "display": "inpatient encounter"
      },
      "type": [ {
        "coding": [ {
          "system": "http://snomed.info/sct",
          "code": "183452005"
        } ]
      } ],
      "subject": {
        "reference": "Patient/3279a237-292f-47b1-9039-ba46b57e765a"
      },
      "period": {
        "start": "2026-11-09T11:00:00.000+00:00",
        "end": "2026-11-12T08:15:00.000+00:00"
      },
      "diagnosis": [ {
        "extension": [ {
          "url": "http://hl7.org/fhir/us/qicore/StructureDefinition/qicore-encounter-diagnosisPresentOnAdmission",
          "valueCodeableConcept": {
            "coding": [ {
              "system": "https://www.cms.gov/Medicare/Medicare-Fee-for-Service-Payment/HospitalAcqCond/Coding",
              "code": "N"
            } ]
          }
        } ],
        "condition": {
          "reference": "Condition/c4bf47cd-06f0-4ea8-bc9e-5528b428e108"
        }
      } ]
    },
    "request": {
      "method": "PUT",
      "url": "Encounter/ddef025e-5b3e-4a0e-b613-dd1163292662"
    }
  }, {
    "fullUrl": "https://madie.cms.gov/Encounter/af57a316-e5e2-4565-9737-4391929b97e5",
    "resource": {
      "resourceType": "Encounter",
      "id": "af57a316-e5e2-4565-9737-4391929b97e5",
      "meta": {
        "profile": [ "http://hl7.org/fhir/us/qicore/StructureDefinition/qicore-encounter" ]
      },
      "status": "finished",
      "class": {
        "system": "http://terminology.hl7.org/CodeSystem/v3-ActCode",
        "code": "IMP",
        "display": "inpatient encounter"
      },
      "type": [ {
        "coding": [ {
          "system": "http://snomed.info/sct",
          "code": "4525004"
        } ]
      } ],
      "subject": {
        "reference": "Patient/3279a237-292f-47b1-9039-ba46b57e765a"
      },
      "period": {
        "start": "2026-11-08T08:00:00.000+00:00",
        "end": "2026-11-09T10:15:00.000+00:00"
      }
    },
    "request": {
      "method": "PUT",
      "url": "Encounter/af57a316-e5e2-4565-9737-4391929b97e5"
    }
  }, {
    "fullUrl": "https://madie.cms.gov/Condition/c4bf47cd-06f0-4ea8-bc9e-5528b428e108",
    "resource": {
      "resourceType": "Condition",
      "id": "c4bf47cd-06f0-4ea8-bc9e-5528b428e108",
      "meta": {
        "profile": [ "http://hl7.org/fhir/us/qicore/StructureDefinition/qicore-condition" ]
      },
      "clinicalStatus": {
        "coding": [ {
          "system": "http://terminology.hl7.org/CodeSystem/condition-clinical",
          "code": "active"
        } ]
      },
      "verificationStatus": {
        "coding": [ {
          "system": "http://terminology.hl7.org/CodeSystem/condition-ver-status",
          "code": "confirmed"
        } ]
      },
      "category": [ {
        "coding": [ {
          "system": "http://terminology.hl7.org/CodeSystem/condition-category",
          "code": "encounter-diagnosis",
          "display": "Encounter Diagnosis"
        } ]
      } ],
      "code": {
        "coding": [ {
          "system": "http://snomed.info/sct",
          "code": "242390007"
        } ]
      },
      "subject": {
        "reference": "Patient/3279a237-292f-47b1-9039-ba46b57e765a"
      },
      "encounter": {
        "reference": "Encounter/ddef025e-5b3e-4a0e-b613-dd1163292662"
      }
    },
    "request": {
      "method": "PUT",
      "url": "Condition/c4bf47cd-06f0-4ea8-bc9e-5528b428e108"
    }
  }, {
    "fullUrl": "https://madie.cms.gov/Patient/3279a237-292f-47b1-9039-ba46b57e765a",
    "resource": {
      "resourceType": "Patient",
      "id": "3279a237-292f-47b1-9039-ba46b57e765a",
      "meta": {
        "profile": [ "http://hl7.org/fhir/us/qicore/StructureDefinition/qicore-patient" ]
      },
      "extension": [ {
        "url": "http://hl7.org/fhir/us/core/StructureDefinition/us-core-race",
        "extension": [ {
          "url": "ombCategory",
          "valueCoding": {
            "system": "urn:oid:2.16.840.1.113883.6.238",
            "code": "2054-5",
            "display": "Black or African American",
            "userSelected": true
          }
        }, {
          "url": "text",
          "valueString": "Black or African American"
        } ]
      }, {
        "url": "http://hl7.org/fhir/us/core/StructureDefinition/us-core-ethnicity",
        "extension": [ {
          "url": "ombCategory",
          "valueCoding": {
            "system": "urn:oid:2.16.840.1.113883.6.238",
            "code": "2186-5",
            "display": "Not Hispanic or Latino",
            "userSelected": true
          }
        }, {
          "url": "text",
          "valueString": "Not Hispanic or Latino"
        } ]
      } ],
      "identifier": [ {
        "type": {
          "coding": [ {
            "system": "http://terminology.hl7.org/CodeSystem/v2-0203",
            "code": "MR"
          } ]
        },
        "system": "https://bonnie-fhir.healthit.gov/",
        "value": "61152a3b98086b7a79cbd7c1"
      } ],
      "active": true,
      "name": [ {
        "use": "usual",
        "family": "NUMERFail",
        "given": [ "FallNPOANoInjury" ]
      } ],
      "gender": "male",
      "birthDate": "1964-12-11"
    },
    "request": {
      "method": "PUT",
      "url": "Patient/3279a237-292f-47b1-9039-ba46b57e765a"
    }
  }, {
    "fullUrl": "https://madie.cms.gov/MeasureReport/69bfdf0d-cf66-4529-a662-fb2e963a16f2",
    "resource": {
      "resourceType": "MeasureReport",
      "id": "69bfdf0d-cf66-4529-a662-fb2e963a16f2",
      "meta": {
        "profile": [ "http://hl7.org/fhir/us/cqfmeasures/StructureDefinition/test-case-cqfm" ]
      },
      "contained": [ {
        "resourceType": "Parameters",
        "id": "1d838601-fba6-4e0e-8b80-6a9b928abd9b-parameters",
        "parameter": [ {
          "name": "subject",
          "valueString": "3279a237-292f-47b1-9039-ba46b57e765a"
        } ]
      } ],
      "extension": [ {
        "url": "http://hl7.org/fhir/StructureDefinition/cqf-inputParameters",
        "valueReference": {
          "reference": "#1d838601-fba6-4e0e-8b80-6a9b928abd9b-parameters"
        }
      }, {
        "url": "http://hl7.org/fhir/us/cqfmeasures/StructureDefinition/cqfm-testCaseDescription",
        "valueMarkdown": "Encounter diagnoses include a fall NPOA but no injury. Numerator fails"
      } ],
      "modifierExtension": [ {
        "url": "http://hl7.org/fhir/us/cqfmeasures/StructureDefinition/cqfm-isTestCase",
        "valueBoolean": true
      } ],
      "status": "complete",
      "type": "individual",
      "measure": "https://madie.cms.gov/Measure/CMS1017FHIRHHFI",
      "period": {
        "start": "2026-01-01",
        "end": "2026-12-31"
      },
      "group": [ {
        "id": "Group_1",
        "population": [ {
          "id": "InitialPopulation_1",
          "code": {
            "coding": [ {
              "system": "http://terminology.hl7.org/CodeSystem/measure-population",
              "code": "initial-population",
              "display": "Initial Population"
            } ]
          },
          "count": 1
        }, {
          "id": "Denominator_1",
          "code": {
            "coding": [ {
              "system": "http://terminology.hl7.org/CodeSystem/measure-population",
              "code": "denominator",
              "display": "Denominator"
            } ]
          },
          "count": 1
        }, {
          "id": "DenominatorExclusion_1",
          "code": {
            "coding": [ {
              "system": "http://terminology.hl7.org/CodeSystem/measure-population",
              "code": "denominator-exclusion",
              "display": "Denominator Exclusion"
            } ]
          },
          "count": 0
        }, {
          "id": "Numerator_1",
          "code": {
            "coding": [ {
              "system": "http://terminology.hl7.org/CodeSystem/measure-population",
              "code": "numerator",
              "display": "Numerator"
            } ]
          },
          "count": 0
        }, {
          "id": "NumeratorExclusion_1",
          "code": {
            "coding": [ {
              "system": "http://terminology.hl7.org/CodeSystem/measure-population",
              "code": "numerator-exclusion",
              "display": "Numerator Exclusion"
            } ]
          },
          "count": 0
        }, {
          "id": "MeasureObservation_1_1_1",
          "code": {
            "coding": [ {
              "system": "http://terminology.hl7.org/CodeSystem/measure-population",
              "code": "measure-observation",
              "display": "Measure Observation"
            } ]
          },
          "count": 4
        } ],
        "measureScore": {
          "value": 0.0
        }
      } ],
      "evaluatedResource": [ {
        "reference": "Encounter/ddef025e-5b3e-4a0e-b613-dd1163292662"
      }, {
        "reference": "Encounter/af57a316-e5e2-4565-9737-4391929b97e5"
      }, {
        "reference": "Condition/c4bf47cd-06f0-4ea8-bc9e-5528b428e108"
      }, {
        "reference": "Patient/3279a237-292f-47b1-9039-ba46b57e765a"
      } ]
    },
    "request": {
      "method": "PUT",
      "url": "MeasureReport/69bfdf0d-cf66-4529-a662-fb2e963a16f2"
    }
  } ]
}