{
  "resourceType": "Bundle",
  "id": "DENOMPass-RVDeliriumDxPOA",
  "type": "transaction",
  "entry": [ {
    "fullUrl": "https://madie.cms.gov/Claim/71926ae2-3a75-4df8-b032-d018ef3d67a9",
    "resource": {
      "resourceType": "Claim",
      "id": "71926ae2-3a75-4df8-b032-d018ef3d67a9",
      "meta": {
        "profile": [ "http://hl7.org/fhir/us/qicore/StructureDefinition/qicore-claim" ]
      },
      "status": "active",
      "type": {
        "coding": [ {
          "system": "http://terminology.hl7.org/CodeSystem/claim-type",
          "code": "professional",
          "display": "Professional"
        } ]
      },
      "use": "claim",
      "patient": {
        "reference": "Patient/1b700def-98b0-418c-b0a7-80ecb275597f"
      },
      "created": "2026-12-12",
      "provider": {
        "reference": "Practitioner/a80825ce-53d7-4a10-b7b0-9afe96a2f1b4"
      },
      "priority": {
        "coding": [ {
          "system": "http://terminology.hl7.org/CodeSystem/processpriority",
          "code": "normal"
        } ]
      },
      "diagnosis": [ {
        "sequence": 1,
        "diagnosisCodeableConcept": {
          "coding": [ {
            "system": "http://hl7.org/fhir/sid/icd-10-cm",
            "code": "F01.50"
          } ]
        },
        "onAdmission": {
          "coding": [ {
            "system": "https://www.cms.gov/Medicare/Medicare-Fee-for-Service-Payment/HospitalAcqCond/Coding",
            "code": "Y"
          } ]
        }
      } ],
      "insurance": [ {
        "sequence": 1,
        "focal": true,
        "coverage": {
          "reference": "Coverage/dbf0d563-625e-4f7b-924c-920a4acdaf88"
        }
      } ],
      "item": [ {
        "sequence": 1,
        "diagnosisSequence": [ 1, 2 ],
        "productOrService": {
          "coding": [ {
            "system": "http://terminology.hl7.org/CodeSystem/ex-USCLS",
            "code": "1101"
          } ]
        },
        "encounter": [ {
          "reference": "Encounter/8d684d6c-3652-45dc-981d-d50c743dfea2"
        } ]
      } ]
    },
    "request": {
      "method": "PUT",
      "url": "Claim/71926ae2-3a75-4df8-b032-d018ef3d67a9"
    }
  }, {
    "fullUrl": "https://madie.cms.gov/Patient/1b700def-98b0-418c-b0a7-80ecb275597f",
    "resource": {
      "resourceType": "Patient",
      "id": "1b700def-98b0-418c-b0a7-80ecb275597f",
      "meta": {
        "profile": [ "http://hl7.org/fhir/us/qicore/StructureDefinition/qicore-patient" ]
      },
      "extension": [ {
        "url": "http://hl7.org/fhir/us/core/StructureDefinition/us-core-race",
        "extension": [ {
          "url": "ombCategory",
          "valueCoding": {
            "system": "urn:oid:2.16.840.1.113883.6.238",
            "code": "1002-5",
            "display": "American Indian or Alaska Native",
            "userSelected": true
          }
        }, {
          "url": "text",
          "valueString": "American Indian or Alaska Native"
        } ]
      }, {
        "url": "http://hl7.org/fhir/us/core/StructureDefinition/us-core-ethnicity",
        "extension": [ {
          "url": "ombCategory",
          "valueCoding": {
            "system": "urn:oid:2.16.840.1.113883.6.238",
            "code": "2135-2",
            "display": "Hispanic or Latino",
            "userSelected": true
          }
        }, {
          "url": "text",
          "valueString": "Hispanic or Latino"
        } ]
      } ],
      "identifier": [ {
        "type": {
          "coding": [ {
            "system": "http://terminology.hl7.org/CodeSystem/v2-0203",
            "code": "MR"
          } ]
        },
        "system": "https://bonnie-fhir.healthit.gov/",
        "value": "61152a3b98086b7a79cbd7c1"
      } ],
      "active": true,
      "name": [ {
        "use": "usual",
        "family": "DENOMPass",
        "given": [ "RVDeliriumDxPOA" ]
      } ],
      "gender": "female",
      "birthDate": "1964-12-11"
    },
    "request": {
      "method": "PUT",
      "url": "Patient/1b700def-98b0-418c-b0a7-80ecb275597f"
    }
  }, {
    "fullUrl": "https://madie.cms.gov/Encounter/8d684d6c-3652-45dc-981d-d50c743dfea2",
    "resource": {
      "resourceType": "Encounter",
      "id": "8d684d6c-3652-45dc-981d-d50c743dfea2",
      "meta": {
        "profile": [ "http://hl7.org/fhir/us/qicore/StructureDefinition/qicore-encounter" ]
      },
      "status": "finished",
      "class": {
        "system": "http://terminology.hl7.org/CodeSystem/v3-ActCode",
        "code": "IMP",
        "display": "inpatient encounter"
      },
      "type": [ {
        "coding": [ {
          "system": "http://snomed.info/sct",
          "code": "183452005",
          "display": "Emergency hospital admission"
        } ]
      } ],
      "subject": {
        "reference": "Patient/1b700def-98b0-418c-b0a7-80ecb275597f"
      },
      "period": {
        "start": "2026-11-12T08:00:00.000+00:00",
        "end": "2026-11-18T08:01:00.000+00:00"
      },
      "length": {
        "value": 6,
        "unit": "days"
      }
    },
    "request": {
      "method": "PUT",
      "url": "Encounter/8d684d6c-3652-45dc-981d-d50c743dfea2"
    }
  }, {
    "fullUrl": "https://madie.cms.gov/Practitioner/a80825ce-53d7-4a10-b7b0-9afe96a2f1b4",
    "resource": {
      "resourceType": "Practitioner",
      "id": "a80825ce-53d7-4a10-b7b0-9afe96a2f1b4",
      "meta": {
        "profile": [ "http://hl7.org/fhir/us/qicore/StructureDefinition/qicore-practitioner" ]
      },
      "identifier": [ {
        "system": "http://www.cms.gov/identifiers/pracitioners",
        "value": "P12345"
      } ],
      "name": [ {
        "use": "official",
        "family": "Smith",
        "given": [ "John" ]
      } ],
      "qualification": [ {
        "identifier": [ {
          "system": "http://hl7.org/fhir/sid/us-npi",
          "value": "1234567890"
        } ],
        "code": {
          "coding": [ {
            "system": "http://terminology.hl7.org/CodeSystem/v2-0203",
            "code": "MD",
            "display": "Medical License number"
          } ]
        }
      } ]
    },
    "request": {
      "method": "PUT",
      "url": "Practitioner/a80825ce-53d7-4a10-b7b0-9afe96a2f1b4"
    }
  }, {
    "fullUrl": "https://madie.cms.gov/Coverage/dbf0d563-625e-4f7b-924c-920a4acdaf88",
    "resource": {
      "resourceType": "Coverage",
      "id": "dbf0d563-625e-4f7b-924c-920a4acdaf88",
      "meta": {
        "profile": [ "http://hl7.org/fhir/us/qicore/StructureDefinition/qicore-coverage" ]
      },
      "identifier": [ {
        "use": "official",
        "type": {
          "coding": [ {
            "system": "http://terminology.hl7.org/CodeSystem/v2-0203",
            "code": "MB"
          } ]
        },
        "system": "http://insuranceNumber.org/",
        "value": "123456789"
      } ],
      "status": "active",
      "beneficiary": {
        "reference": "Patient/1b700def-98b0-418c-b0a7-80ecb275597f"
      },
      "relationship": {
        "coding": [ {
          "system": "http://terminology.hl7.org/CodeSystem/subscriber-relationship",
          "code": "self",
          "display": "Self"
        } ]
      },
      "payor": [ {
        "reference": "Organization/eb8afa9e-85f0-4037-a459-ca042f003516"
      } ]
    },
    "request": {
      "method": "PUT",
      "url": "Coverage/dbf0d563-625e-4f7b-924c-920a4acdaf88"
    }
  }, {
    "fullUrl": "https://madie.cms.gov/Organization/eb8afa9e-85f0-4037-a459-ca042f003516",
    "resource": {
      "resourceType": "Organization",
      "id": "eb8afa9e-85f0-4037-a459-ca042f003516",
      "meta": {
        "profile": [ "http://hl7.org/fhir/us/qicore/StructureDefinition/qicore-organization" ]
      },
      "identifier": [ {
        "system": "http://cms.gov/insurance-ids",
        "value": "AET12345"
      } ],
      "active": true,
      "type": [ {
        "coding": [ {
          "system": "http://terminology.hl7.org/CodeSystem/organization-type",
          "code": "prov",
          "display": "Healthcare Provider"
        } ]
      } ],
      "name": "Aetna Insurance",
      "telecom": [ {
        "system": "phone",
        "value": "+1-800-123-4567"
      } ],
      "address": [ {
        "line": [ "123 Main Street" ],
        "city": "Cityville",
        "state": "CA",
        "postalCode": "12345",
        "country": "USA"
      } ]
    },
    "request": {
      "method": "PUT",
      "url": "Organization/eb8afa9e-85f0-4037-a459-ca042f003516"
    }
  }, {
    "fullUrl": "https://madie.cms.gov/MeasureReport/20266229-a8cb-409b-9d8d-fb4981d79afa",
    "resource": {
      "resourceType": "MeasureReport",
      "id": "20266229-a8cb-409b-9d8d-fb4981d79afa",
      "meta": {
        "profile": [ "http://hl7.org/fhir/us/cqfmeasures/StructureDefinition/test-case-cqfm" ]
      },
      "contained": [ {
        "resourceType": "Parameters",
        "id": "7618a600-ea93-46d3-9d34-36c75ee7f746-parameters",
        "parameter": [ {
          "name": "subject",
          "valueString": "1b700def-98b0-418c-b0a7-80ecb275597f"
        } ]
      } ],
      "extension": [ {
        "url": "http://hl7.org/fhir/StructureDefinition/cqf-inputParameters",
        "valueReference": {
          "reference": "#7618a600-ea93-46d3-9d34-36c75ee7f746-parameters"
        }
      }, {
        "url": "http://hl7.org/fhir/us/cqfmeasures/StructureDefinition/cqfm-testCaseDescription",
        "valueMarkdown": "Encounter with delirium dx POA = Y. Meets RV"
      } ],
      "modifierExtension": [ {
        "url": "http://hl7.org/fhir/us/cqfmeasures/StructureDefinition/cqfm-isTestCase",
        "valueBoolean": true
      } ],
      "status": "complete",
      "type": "individual",
      "measure": "https://madie.cms.gov/Measure/CMS1017FHIRHHFI",
      "period": {
        "start": "2026-01-01",
        "end": "2026-12-31"
      },
      "group": [ {
        "id": "Group_1",
        "population": [ {
          "id": "InitialPopulation_1",
          "code": {
            "coding": [ {
              "system": "http://terminology.hl7.org/CodeSystem/measure-population",
              "code": "initial-population",
              "display": "Initial Population"
            } ]
          },
          "count": 1
        }, {
          "id": "Denominator_1",
          "code": {
            "coding": [ {
              "system": "http://terminology.hl7.org/CodeSystem/measure-population",
              "code": "denominator",
              "display": "Denominator"
            } ]
          },
          "count": 1
        }, {
          "id": "DenominatorExclusion_1",
          "code": {
            "coding": [ {
              "system": "http://terminology.hl7.org/CodeSystem/measure-population",
              "code": "denominator-exclusion",
              "display": "Denominator Exclusion"
            } ]
          },
          "count": 0
        }, {
          "id": "Numerator_1",
          "code": {
            "coding": [ {
              "system": "http://terminology.hl7.org/CodeSystem/measure-population",
              "code": "numerator",
              "display": "Numerator"
            } ]
          },
          "count": 0
        }, {
          "id": "NumeratorExclusion_1",
          "code": {
            "coding": [ {
              "system": "http://terminology.hl7.org/CodeSystem/measure-population",
              "code": "numerator-exclusion",
              "display": "Numerator Exclusion"
            } ]
          },
          "count": 0
        }, {
          "id": "MeasureObservation_1_1_1",
          "code": {
            "coding": [ {
              "system": "http://terminology.hl7.org/CodeSystem/measure-population",
              "code": "measure-observation",
              "display": "Measure Observation"
            } ]
          },
          "count": 6
        } ],
        "measureScore": {
          "value": 0.0
        }
      } ],
      "evaluatedResource": [ {
        "reference": "Claim/71926ae2-3a75-4df8-b032-d018ef3d67a9"
      }, {
        "reference": "Patient/1b700def-98b0-418c-b0a7-80ecb275597f"
      }, {
        "reference": "Encounter/8d684d6c-3652-45dc-981d-d50c743dfea2"
      }, {
        "reference": "Practitioner/a80825ce-53d7-4a10-b7b0-9afe96a2f1b4"
      }, {
        "reference": "Coverage/dbf0d563-625e-4f7b-924c-920a4acdaf88"
      }, {
        "reference": "Organization/eb8afa9e-85f0-4037-a459-ca042f003516"
      } ]
    },
    "request": {
      "method": "PUT",
      "url": "MeasureReport/20266229-a8cb-409b-9d8d-fb4981d79afa"
    }
  } ]
}