{
  "resourceType": "Bundle",
  "id": "tests-NumerPass-RVwithDiureticsPlanAtAdmission-bundle",
  "type": "transaction",
  "entry": [ {
    "fullUrl": "https://madie.cms.gov/Encounter/229e8a96-82a3-4714-b82f-decc1eb26f2a",
    "resource": {
      "resourceType": "Encounter",
      "id": "229e8a96-82a3-4714-b82f-decc1eb26f2a",
      "meta": {
        "profile": [ "http://hl7.org/fhir/us/qicore/StructureDefinition/qicore-encounter" ]
      },
      "status": "finished",
      "class": {
        "system": "http://terminology.hl7.org/CodeSystem/v3-ActCode",
        "code": "IMP",
        "display": "inpatient encounter"
      },
      "type": [ {
        "coding": [ {
          "system": "http://snomed.info/sct",
          "code": "183452005"
        } ]
      } ],
      "subject": {
        "reference": "Patient/55931284-058b-4776-882c-720caddd3366"
      },
      "period": {
        "start": "2026-10-19T08:30:00.000+00:00",
        "end": "2026-10-21T08:15:00.000+00:00"
      },
      "reasonCode": [ {
        "coding": [ {
          "system": "http://snomed.info/sct",
          "code": "14047009"
        } ]
      }, {
        "coding": [ {
          "system": "http://snomed.info/sct",
          "code": "64859006"
        } ]
      } ]
    },
    "request": {
      "method": "PUT",
      "url": "Encounter/229e8a96-82a3-4714-b82f-decc1eb26f2a"
    }
  }, {
    "fullUrl": "https://madie.cms.gov/Encounter/aa43c477-950d-478f-92eb-67af3324a518",
    "resource": {
      "resourceType": "Encounter",
      "id": "aa43c477-950d-478f-92eb-67af3324a518",
      "meta": {
        "profile": [ "http://hl7.org/fhir/us/qicore/StructureDefinition/qicore-encounter" ]
      },
      "status": "finished",
      "class": {
        "system": "http://terminology.hl7.org/CodeSystem/v3-ActCode",
        "code": "EMER",
        "display": "emergency encounter"
      },
      "type": [ {
        "coding": [ {
          "system": "http://snomed.info/sct",
          "code": "4525004"
        } ]
      } ],
      "subject": {
        "reference": "Patient/55931284-058b-4776-882c-720caddd3366"
      },
      "period": {
        "start": "2026-10-18T09:15:00.000+00:00",
        "end": "2026-10-19T08:15:00.000+00:00"
      }
    },
    "request": {
      "method": "PUT",
      "url": "Encounter/aa43c477-950d-478f-92eb-67af3324a518"
    }
  }, {
    "fullUrl": "https://madie.cms.gov/Patient/55931284-058b-4776-882c-720caddd3366",
    "resource": {
      "resourceType": "Patient",
      "id": "55931284-058b-4776-882c-720caddd3366",
      "meta": {
        "profile": [ "http://hl7.org/fhir/us/qicore/StructureDefinition/qicore-patient" ]
      },
      "extension": [ {
        "url": "http://hl7.org/fhir/us/core/StructureDefinition/us-core-race",
        "extension": [ {
          "url": "ombCategory",
          "valueCoding": {
            "system": "urn:oid:2.16.840.1.113883.6.238",
            "code": "2106-3",
            "display": "White"
          }
        }, {
          "url": "text",
          "valueString": "White"
        } ]
      }, {
        "url": "http://hl7.org/fhir/us/core/StructureDefinition/us-core-ethnicity",
        "extension": [ {
          "url": "ombCategory",
          "valueCoding": {
            "system": "urn:oid:2.16.840.1.113883.6.238",
            "code": "2135-2",
            "display": "Hispanic or Latino"
          }
        }, {
          "url": "text",
          "valueString": "Hispanic or Latino"
        } ]
      }, {
        "url": "http://hl7.org/fhir/us/core/StructureDefinition/us-core-sex",
        "valueCode": "248153007"
      } ],
      "identifier": [ {
        "system": "http://hospital.smarthealthit.org",
        "value": "999999999"
      } ],
      "name": [ {
        "family": "Example",
        "given": [ "Patient" ]
      } ],
      "gender": "female",
      "birthDate": "1956-01-01"
    },
    "request": {
      "method": "PUT",
      "url": "Patient/55931284-058b-4776-882c-720caddd3366"
    }
  }, {
    "fullUrl": "https://madie.cms.gov/Claim/3d14604a-d39d-4ed6-8ee0-b168ad4745f3",
    "resource": {
      "resourceType": "Claim",
      "id": "3d14604a-d39d-4ed6-8ee0-b168ad4745f3",
      "meta": {
        "profile": [ "http://hl7.org/fhir/us/qicore/StructureDefinition/qicore-claim" ]
      },
      "status": "active",
      "type": {
        "coding": [ {
          "system": "http://terminology.hl7.org/CodeSystem/claim-type",
          "code": "institutional",
          "display": "Institutional"
        } ]
      },
      "use": "claim",
      "patient": {
        "reference": "Patient/55931284-058b-4776-882c-720caddd3366"
      },
      "created": "2026-10-22",
      "provider": {
        "reference": "Practitioner/practitioner-1"
      },
      "priority": {
        "coding": [ {
          "system": "http://terminology.hl7.org/CodeSystem/processpriority",
          "code": "normal"
        } ]
      },
      "diagnosis": [ {
        "sequence": 1,
        "diagnosisCodeableConcept": {
          "coding": [ {
            "system": "http://snomed.info/sct",
            "code": "14047009"
          } ]
        }
      } ],
      "insurance": [ {
        "sequence": 1,
        "focal": true,
        "coverage": {
          "reference": "Coverage/coverage-1"
        }
      } ],
      "item": [ {
        "sequence": 1,
        "diagnosisSequence": [ 1, 2 ],
        "productOrService": {
          "coding": [ {
            "system": "http://terminology.hl7.org/CodeSystem/ex-USCLS",
            "code": "1101"
          } ]
        },
        "encounter": [ {
          "reference": "Encounter/229e8a96-82a3-4714-b82f-decc1eb26f2a"
        } ]
      } ]
    },
    "request": {
      "method": "PUT",
      "url": "Claim/3d14604a-d39d-4ed6-8ee0-b168ad4745f3"
    }
  }, {
    "fullUrl": "https://madie.cms.gov/Claim/b11f49be-023a-4005-8205-e2796224352e",
    "resource": {
      "resourceType": "Claim",
      "id": "b11f49be-023a-4005-8205-e2796224352e",
      "meta": {
        "profile": [ "http://hl7.org/fhir/us/qicore/StructureDefinition/qicore-claim" ]
      },
      "status": "active",
      "type": {
        "coding": [ {
          "system": "http://terminology.hl7.org/CodeSystem/claim-type",
          "code": "institutional",
          "display": "Institutional"
        } ]
      },
      "use": "claim",
      "patient": {
        "reference": "Patient/55931284-058b-4776-882c-720caddd3366"
      },
      "created": "2026-11-01",
      "provider": {
        "reference": "Practitioner/practitioner-1"
      },
      "priority": {
        "coding": [ {
          "system": "http://terminology.hl7.org/CodeSystem/processpriority",
          "code": "normal"
        } ]
      },
      "diagnosis": [ {
        "sequence": 1,
        "diagnosisCodeableConcept": {
          "coding": [ {
            "system": "http://hl7.org/fhir/sid/icd-10-cm",
            "code": "M80.00XA",
            "display": "Age-related osteoporosis with current pathological fracture, unspecified site, initial encounter for fracture"
          } ]
        }
      } ],
      "insurance": [ {
        "sequence": 1,
        "focal": true,
        "coverage": {
          "reference": "Coverage/coverage-1"
        }
      } ],
      "item": [ {
        "sequence": 1,
        "diagnosisSequence": [ 1, 2 ],
        "productOrService": {
          "coding": [ {
            "system": "http://terminology.hl7.org/CodeSystem/ex-USCLS",
            "code": "1101"
          } ]
        },
        "encounter": [ {
          "reference": "Encounter/229e8a96-82a3-4714-b82f-decc1eb26f2a"
        } ]
      } ]
    },
    "request": {
      "method": "PUT",
      "url": "Claim/b11f49be-023a-4005-8205-e2796224352e"
    }
  }, {
    "fullUrl": "https://madie.cms.gov/MedicationRequest/c5179281-c61a-48dd-a796-2f9225381935",
    "resource": {
      "resourceType": "MedicationRequest",
      "id": "c5179281-c61a-48dd-a796-2f9225381935",
      "meta": {
        "profile": [ "http://hl7.org/fhir/us/qicore/StructureDefinition/qicore-medicationrequest" ]
      },
      "status": "active",
      "intent": "plan",
      "category": [ {
        "coding": [ {
          "system": "http://terminology.hl7.org/CodeSystem/medicationrequest-category",
          "code": "community",
          "display": "Community"
        } ]
      } ],
      "reportedReference": {
        "reference": "Patient/55931284-058b-4776-882c-720caddd3366"
      },
      "medicationCodeableConcept": {
        "coding": [ {
          "system": "http://www.nlm.nih.gov/research/umls/rxnorm",
          "code": "1251903"
        } ]
      },
      "subject": {
        "reference": "Patient/55931284-058b-4776-882c-720caddd3366"
      },
      "authoredOn": "2026-10-15",
      "requester": {
        "reference": "Practitioner/2ab4cb11-ebcd-4fcf-97c4-8fea3e5dbfbe"
      },
      "dispenseRequest": {
        "quantity": {
          "value": 14,
          "unit": "tablet",
          "system": "http://unitsofmeasure.org",
          "code": "{tablet}"
        },
        "expectedSupplyDuration": {
          "value": 14,
          "unit": "days",
          "system": "http://unitsofmeasure.org",
          "code": "d"
        }
      }
    },
    "request": {
      "method": "PUT",
      "url": "MedicationRequest/c5179281-c61a-48dd-a796-2f9225381935"
    }
  }, {
    "fullUrl": "https://madie.cms.gov/Practitioner/2ab4cb11-ebcd-4fcf-97c4-8fea3e5dbfbe",
    "resource": {
      "resourceType": "Practitioner",
      "id": "2ab4cb11-ebcd-4fcf-97c4-8fea3e5dbfbe",
      "identifier": [ {
        "system": "http://www.cms.gov/identifiers/pracitioners",
        "value": "P12345"
      } ],
      "name": [ {
        "use": "official",
        "family": "Smith",
        "given": [ "John" ]
      } ],
      "qualification": [ {
        "identifier": [ {
          "system": "http://hl7.org/fhir/sid/us-npi",
          "value": "1234567890"
        } ],
        "code": {
          "coding": [ {
            "system": "http://terminology.hl7.org/CodeSystem/v2-0203",
            "code": "MD",
            "display": "Medical License number"
          } ]
        }
      } ]
    },
    "request": {
      "method": "PUT",
      "url": "Practitioner/2ab4cb11-ebcd-4fcf-97c4-8fea3e5dbfbe"
    }
  }, {
    "fullUrl": "https://madie.cms.gov/Coverage/6b88c8b6-5194-4640-bcc7-2e3ac717e62e",
    "resource": {
      "resourceType": "Coverage",
      "id": "6b88c8b6-5194-4640-bcc7-2e3ac717e62e",
      "status": "active",
      "beneficiary": {
        "reference": "Patient/55931284-058b-4776-882c-720caddd3366"
      },
      "payor": [ {
        "reference": "Organization/7d250683-1b4e-472f-af97-ca7137e1e41c"
      } ]
    },
    "request": {
      "method": "PUT",
      "url": "Coverage/6b88c8b6-5194-4640-bcc7-2e3ac717e62e"
    }
  }, {
    "fullUrl": "https://madie.cms.gov/Organization/7d250683-1b4e-472f-af97-ca7137e1e41c",
    "resource": {
      "resourceType": "Organization",
      "id": "7d250683-1b4e-472f-af97-ca7137e1e41c",
      "identifier": [ {
        "system": "http://cms.gov/insurance-ids",
        "value": "AET12345"
      } ],
      "type": [ {
        "coding": [ {
          "system": "http://terminology.hl7.org/CodeSystem/organization-type",
          "code": "prov",
          "display": "Healthcare Provider"
        } ]
      } ],
      "name": "Aetna Insurance",
      "telecom": [ {
        "system": "phone",
        "value": "+1-800-123-4567"
      } ],
      "address": [ {
        "line": [ "123 Main Street" ],
        "city": "Cityville",
        "state": "CA",
        "postalCode": "12345",
        "country": "USA"
      } ]
    },
    "request": {
      "method": "PUT",
      "url": "Organization/7d250683-1b4e-472f-af97-ca7137e1e41c"
    }
  }, {
    "fullUrl": "https://madie.cms.gov/MeasureReport/5d5635c3-8ae5-42b6-9579-873955272f64",
    "resource": {
      "resourceType": "MeasureReport",
      "id": "5d5635c3-8ae5-42b6-9579-873955272f64",
      "meta": {
        "profile": [ "http://hl7.org/fhir/us/cqfmeasures/StructureDefinition/test-case-cqfm" ]
      },
      "contained": [ {
        "resourceType": "Parameters",
        "id": "7495352b-f1f7-4783-974c-1b34e8754c6e-parameters",
        "parameter": [ {
          "name": "subject",
          "valueString": "55931284-058b-4776-882c-720caddd3366"
        } ]
      } ],
      "extension": [ {
        "url": "http://hl7.org/fhir/StructureDefinition/cqf-inputParameters",
        "valueReference": {
          "reference": "#7495352b-f1f7-4783-974c-1b34e8754c6e-parameters"
        }
      }, {
        "url": "http://hl7.org/fhir/us/cqfmeasures/StructureDefinition/cqfm-testCaseDescription",
        "valueMarkdown": "RVariable Encounter With Diuretics Plan At Admission"
      } ],
      "modifierExtension": [ {
        "url": "http://hl7.org/fhir/us/cqfmeasures/StructureDefinition/cqfm-isTestCase",
        "valueBoolean": true
      } ],
      "status": "complete",
      "type": "individual",
      "measure": "https://madie.cms.gov/Measure/CMS1017FHIRHHFI",
      "period": {
        "start": "2026-01-01",
        "end": "2026-12-31"
      },
      "group": [ {
        "id": "Group_1",
        "population": [ {
          "id": "InitialPopulation_1",
          "code": {
            "coding": [ {
              "system": "http://terminology.hl7.org/CodeSystem/measure-population",
              "code": "initial-population",
              "display": "Initial Population"
            } ]
          },
          "count": 1
        }, {
          "id": "Denominator_1",
          "code": {
            "coding": [ {
              "system": "http://terminology.hl7.org/CodeSystem/measure-population",
              "code": "denominator",
              "display": "Denominator"
            } ]
          },
          "count": 1
        }, {
          "id": "DenominatorExclusion_1",
          "code": {
            "coding": [ {
              "system": "http://terminology.hl7.org/CodeSystem/measure-population",
              "code": "denominator-exclusion",
              "display": "Denominator Exclusion"
            } ]
          },
          "count": 0
        }, {
          "id": "Numerator_1",
          "code": {
            "coding": [ {
              "system": "http://terminology.hl7.org/CodeSystem/measure-population",
              "code": "numerator",
              "display": "Numerator"
            } ]
          },
          "count": 1
        }, {
          "id": "NumeratorExclusion_1",
          "code": {
            "coding": [ {
              "system": "http://terminology.hl7.org/CodeSystem/measure-population",
              "code": "numerator-exclusion",
              "display": "Numerator Exclusion"
            } ]
          },
          "count": 0
        }, {
          "id": "MeasureObservation_1_1_1",
          "code": {
            "coding": [ {
              "system": "http://terminology.hl7.org/CodeSystem/measure-population",
              "code": "measure-observation",
              "display": "Measure Observation"
            } ]
          },
          "count": 2
        }, {
          "id": "MeasureObservation_1_2_1",
          "code": {
            "coding": [ {
              "system": "http://terminology.hl7.org/CodeSystem/measure-population",
              "code": "measure-observation",
              "display": "Measure Observation"
            } ]
          },
          "count": 1
        } ],
        "measureScore": {
          "value": 0.0
        }
      } ],
      "evaluatedResource": [ {
        "reference": "Encounter/229e8a96-82a3-4714-b82f-decc1eb26f2a"
      }, {
        "reference": "Encounter/aa43c477-950d-478f-92eb-67af3324a518"
      }, {
        "reference": "Patient/55931284-058b-4776-882c-720caddd3366"
      }, {
        "reference": "Claim/3d14604a-d39d-4ed6-8ee0-b168ad4745f3"
      }, {
        "reference": "Claim/b11f49be-023a-4005-8205-e2796224352e"
      }, {
        "reference": "MedicationRequest/c5179281-c61a-48dd-a796-2f9225381935"
      }, {
        "reference": "Practitioner/2ab4cb11-ebcd-4fcf-97c4-8fea3e5dbfbe"
      }, {
        "reference": "Coverage/6b88c8b6-5194-4640-bcc7-2e3ac717e62e"
      }, {
        "reference": "Organization/7d250683-1b4e-472f-af97-ca7137e1e41c"
      } ]
    },
    "request": {
      "method": "PUT",
      "url": "MeasureReport/5d5635c3-8ae5-42b6-9579-873955272f64"
    }
  } ]
}