{
  "resourceType": "Bundle",
  "id": "NUMEXPass-2Encounters1Num1Exclusion",
  "type": "transaction",
  "entry": [ {
    "fullUrl": "https://madie.cms.gov/Encounter/f9f2e06f-d86b-4295-952c-2d7653ac6193",
    "resource": {
      "resourceType": "Encounter",
      "id": "f9f2e06f-d86b-4295-952c-2d7653ac6193",
      "meta": {
        "profile": [ "http://hl7.org/fhir/us/qicore/StructureDefinition/qicore-encounter" ]
      },
      "status": "finished",
      "class": {
        "system": "http://terminology.hl7.org/CodeSystem/v3-ActCode",
        "code": "IMP",
        "display": "inpatient encounter"
      },
      "type": [ {
        "coding": [ {
          "system": "http://snomed.info/sct",
          "code": "183452005"
        } ]
      } ],
      "subject": {
        "reference": "Patient/fd4ea84b-cd39-4d03-9641-9ca8d10bbe67"
      },
      "period": {
        "start": "2026-12-08T08:00:00.000+00:00",
        "end": "2026-12-12T08:15:00.000+00:00"
      },
      "reasonCode": [ {
        "coding": [ {
          "system": "http://snomed.info/sct",
          "code": "14047009"
        } ]
      }, {
        "coding": [ {
          "system": "http://hl7.org/fhir/sid/icd-10-cm",
          "code": "W01.0XXA"
        } ]
      }, {
        "coding": [ {
          "system": "http://hl7.org/fhir/sid/icd-10-cm",
          "code": "S01.00XA"
        } ]
      } ]
    },
    "request": {
      "method": "PUT",
      "url": "Encounter/f9f2e06f-d86b-4295-952c-2d7653ac6193"
    }
  }, {
    "fullUrl": "https://madie.cms.gov/Encounter/f58591fa-68dd-4a0e-a708-9a8c316e2806",
    "resource": {
      "resourceType": "Encounter",
      "id": "f58591fa-68dd-4a0e-a708-9a8c316e2806",
      "meta": {
        "profile": [ "http://hl7.org/fhir/us/qicore/StructureDefinition/qicore-encounter" ]
      },
      "status": "finished",
      "class": {
        "system": "http://terminology.hl7.org/CodeSystem/v3-ActCode",
        "code": "IMP",
        "display": "inpatient encounter"
      },
      "type": [ {
        "coding": [ {
          "system": "http://snomed.info/sct",
          "code": "183452005"
        } ]
      } ],
      "subject": {
        "reference": "Patient/fd4ea84b-cd39-4d03-9641-9ca8d10bbe67"
      },
      "period": {
        "start": "2026-11-09T11:00:00.000+00:00",
        "end": "2026-11-12T08:15:00.000+00:00"
      },
      "reasonCode": [ {
        "coding": [ {
          "system": "http://snomed.info/sct",
          "code": "14047009"
        } ]
      }, {
        "coding": [ {
          "system": "http://hl7.org/fhir/sid/icd-10-cm",
          "code": "M80.00XA"
        } ]
      } ]
    },
    "request": {
      "method": "PUT",
      "url": "Encounter/f58591fa-68dd-4a0e-a708-9a8c316e2806"
    }
  }, {
    "fullUrl": "https://madie.cms.gov/Patient/fd4ea84b-cd39-4d03-9641-9ca8d10bbe67",
    "resource": {
      "resourceType": "Patient",
      "id": "fd4ea84b-cd39-4d03-9641-9ca8d10bbe67",
      "meta": {
        "profile": [ "http://hl7.org/fhir/us/qicore/StructureDefinition/qicore-patient" ]
      },
      "extension": [ {
        "url": "http://hl7.org/fhir/us/core/StructureDefinition/us-core-race",
        "extension": [ {
          "url": "ombCategory",
          "valueCoding": {
            "system": "urn:oid:2.16.840.1.113883.6.238",
            "code": "2054-5",
            "display": "Black or African American",
            "userSelected": true
          }
        }, {
          "url": "text",
          "valueString": "Black or African American"
        } ]
      }, {
        "url": "http://hl7.org/fhir/us/core/StructureDefinition/us-core-ethnicity",
        "extension": [ {
          "url": "ombCategory",
          "valueCoding": {
            "system": "urn:oid:2.16.840.1.113883.6.238",
            "code": "2186-5",
            "display": "Not Hispanic or Latino",
            "userSelected": true
          }
        }, {
          "url": "text",
          "valueString": "Not Hispanic or Latino"
        } ]
      } ],
      "identifier": [ {
        "type": {
          "coding": [ {
            "system": "http://terminology.hl7.org/CodeSystem/v2-0203",
            "code": "MR"
          } ]
        },
        "system": "https://bonnie-fhir.healthit.gov/",
        "value": "61152a3b98086b7a79cbd7c1"
      } ],
      "active": true,
      "name": [ {
        "use": "usual",
        "family": "NUMEXPass",
        "given": [ "2Encounters1Num1Exclusion" ]
      } ],
      "gender": "male",
      "birthDate": "1964-12-11"
    },
    "request": {
      "method": "PUT",
      "url": "Patient/fd4ea84b-cd39-4d03-9641-9ca8d10bbe67"
    }
  }, {
    "fullUrl": "https://madie.cms.gov/AdverseEvent/90381995-274f-476a-8468-960236611423",
    "resource": {
      "resourceType": "AdverseEvent",
      "id": "90381995-274f-476a-8468-960236611423",
      "meta": {
        "profile": [ "http://hl7.org/fhir/us/qicore/StructureDefinition/qicore-adverseevent" ]
      },
      "actuality": "actual",
      "event": {
        "coding": [ {
          "system": "http://hl7.org/fhir/sid/icd-10-cm",
          "code": "W01.0XXA"
        } ]
      },
      "subject": {
        "reference": "Patient/fd4ea84b-cd39-4d03-9641-9ca8d10bbe67"
      },
      "encounter": {
        "reference": "Encounter/f9f2e06f-d86b-4295-952c-2d7653ac6193"
      },
      "date": "2026-12-09T08:00:00.000+00:00"
    },
    "request": {
      "method": "PUT",
      "url": "AdverseEvent/90381995-274f-476a-8468-960236611423"
    }
  }, {
    "fullUrl": "https://madie.cms.gov/AdverseEvent/dd89ed43-80a5-4e5b-88c7-e16bb536e81c",
    "resource": {
      "resourceType": "AdverseEvent",
      "id": "dd89ed43-80a5-4e5b-88c7-e16bb536e81c",
      "meta": {
        "profile": [ "http://hl7.org/fhir/us/qicore/StructureDefinition/qicore-adverseevent" ]
      },
      "actuality": "actual",
      "event": {
        "coding": [ {
          "system": "http://snomed.info/sct",
          "code": "14047009"
        } ]
      },
      "subject": {
        "reference": "Patient/fd4ea84b-cd39-4d03-9641-9ca8d10bbe67"
      },
      "encounter": {
        "reference": "Encounter/f58591fa-68dd-4a0e-a708-9a8c316e2806"
      },
      "date": "2026-11-09T08:00:00.000+00:00"
    },
    "request": {
      "method": "PUT",
      "url": "AdverseEvent/dd89ed43-80a5-4e5b-88c7-e16bb536e81c"
    }
  }, {
    "fullUrl": "https://madie.cms.gov/Claim/0933e48c-09a2-45a4-90db-4df97d6bab9e",
    "resource": {
      "resourceType": "Claim",
      "id": "0933e48c-09a2-45a4-90db-4df97d6bab9e",
      "meta": {
        "profile": [ "http://hl7.org/fhir/us/qicore/StructureDefinition/qicore-claim" ]
      },
      "status": "active",
      "type": {
        "coding": [ {
          "system": "http://terminology.hl7.org/CodeSystem/claim-type",
          "code": "professional",
          "display": "Professional"
        } ]
      },
      "use": "claim",
      "patient": {
        "reference": "Patient/fd4ea84b-cd39-4d03-9641-9ca8d10bbe67"
      },
      "created": "2026-11-12",
      "provider": {
        "reference": "Practitioner/29014aab-08e9-4a16-8b88-5e3e6b557552"
      },
      "priority": {
        "coding": [ {
          "system": "http://terminology.hl7.org/CodeSystem/processpriority",
          "code": "normal"
        } ]
      },
      "diagnosis": [ {
        "sequence": 1,
        "diagnosisCodeableConcept": {
          "coding": [ {
            "system": "http://snomed.info/sct",
            "code": "14047009"
          } ]
        },
        "onAdmission": {
          "coding": [ {
            "system": "https://www.cms.gov/Medicare/Medicare-Fee-for-Service-Payment/HospitalAcqCond/Coding",
            "code": "N"
          } ]
        }
      } ],
      "insurance": [ {
        "sequence": 1,
        "focal": true,
        "coverage": {
          "reference": "Coverage/00c1e669-1f05-414c-aca9-f61961d36c41"
        }
      } ],
      "item": [ {
        "sequence": 1,
        "diagnosisSequence": [ 1, 2 ],
        "productOrService": {
          "coding": [ {
            "system": "http://terminology.hl7.org/CodeSystem/ex-USCLS",
            "code": "1101"
          } ]
        },
        "encounter": [ {
          "reference": "Encounter/f58591fa-68dd-4a0e-a708-9a8c316e2806"
        } ]
      } ]
    },
    "request": {
      "method": "PUT",
      "url": "Claim/0933e48c-09a2-45a4-90db-4df97d6bab9e"
    }
  }, {
    "fullUrl": "https://madie.cms.gov/Claim/102f29c4-53ec-488e-b827-1a1446a7ac92",
    "resource": {
      "resourceType": "Claim",
      "id": "102f29c4-53ec-488e-b827-1a1446a7ac92",
      "meta": {
        "profile": [ "http://hl7.org/fhir/us/qicore/StructureDefinition/qicore-claim" ]
      },
      "status": "active",
      "type": {
        "coding": [ {
          "system": "http://terminology.hl7.org/CodeSystem/claim-type",
          "code": "professional",
          "display": "Professional"
        } ]
      },
      "use": "claim",
      "patient": {
        "reference": "Patient/fd4ea84b-cd39-4d03-9641-9ca8d10bbe67"
      },
      "created": "2026-11-12",
      "provider": {
        "reference": "Practitioner/29014aab-08e9-4a16-8b88-5e3e6b557552"
      },
      "priority": {
        "coding": [ {
          "system": "http://terminology.hl7.org/CodeSystem/processpriority",
          "code": "normal"
        } ]
      },
      "diagnosis": [ {
        "sequence": 2,
        "diagnosisCodeableConcept": {
          "coding": [ {
            "system": "http://hl7.org/fhir/sid/icd-10-cm",
            "code": "M80.00XA"
          } ]
        },
        "onAdmission": {
          "coding": [ {
            "system": "https://www.cms.gov/Medicare/Medicare-Fee-for-Service-Payment/HospitalAcqCond/Coding",
            "code": "N"
          } ]
        }
      } ],
      "insurance": [ {
        "sequence": 1,
        "focal": true,
        "coverage": {
          "reference": "Coverage/00c1e669-1f05-414c-aca9-f61961d36c41"
        }
      } ],
      "item": [ {
        "sequence": 1,
        "diagnosisSequence": [ 1, 2 ],
        "productOrService": {
          "coding": [ {
            "system": "http://terminology.hl7.org/CodeSystem/ex-USCLS",
            "code": "1101"
          } ]
        },
        "encounter": [ {
          "reference": "Encounter/f58591fa-68dd-4a0e-a708-9a8c316e2806"
        } ]
      } ]
    },
    "request": {
      "method": "PUT",
      "url": "Claim/102f29c4-53ec-488e-b827-1a1446a7ac92"
    }
  }, {
    "fullUrl": "https://madie.cms.gov/Claim/92d856b0-663e-4142-9d03-20773ad78505",
    "resource": {
      "resourceType": "Claim",
      "id": "92d856b0-663e-4142-9d03-20773ad78505",
      "meta": {
        "profile": [ "http://hl7.org/fhir/us/qicore/StructureDefinition/qicore-claim" ]
      },
      "status": "active",
      "type": {
        "coding": [ {
          "system": "http://terminology.hl7.org/CodeSystem/claim-type",
          "code": "professional",
          "display": "Professional"
        } ]
      },
      "use": "claim",
      "patient": {
        "reference": "Patient/fd4ea84b-cd39-4d03-9641-9ca8d10bbe67"
      },
      "created": "2026-12-12",
      "provider": {
        "reference": "Practitioner/29014aab-08e9-4a16-8b88-5e3e6b557552"
      },
      "priority": {
        "coding": [ {
          "system": "http://terminology.hl7.org/CodeSystem/processpriority",
          "code": "normal"
        } ]
      },
      "diagnosis": [ {
        "sequence": 1,
        "diagnosisCodeableConcept": {
          "coding": [ {
            "system": "http://snomed.info/sct",
            "code": "14047009"
          } ]
        },
        "onAdmission": {
          "coding": [ {
            "system": "https://www.cms.gov/Medicare/Medicare-Fee-for-Service-Payment/HospitalAcqCond/Coding",
            "code": "Y"
          } ]
        }
      } ],
      "insurance": [ {
        "sequence": 1,
        "focal": true,
        "coverage": {
          "reference": "Coverage/00c1e669-1f05-414c-aca9-f61961d36c41"
        }
      } ],
      "item": [ {
        "sequence": 1,
        "diagnosisSequence": [ 1, 2, 3 ],
        "productOrService": {
          "coding": [ {
            "system": "http://terminology.hl7.org/CodeSystem/ex-USCLS",
            "code": "1101"
          } ]
        },
        "encounter": [ {
          "reference": "Encounter/f9f2e06f-d86b-4295-952c-2d7653ac6193"
        } ]
      } ]
    },
    "request": {
      "method": "PUT",
      "url": "Claim/92d856b0-663e-4142-9d03-20773ad78505"
    }
  }, {
    "fullUrl": "https://madie.cms.gov/Claim/b8a84430-e492-4952-80be-acf96ae66ae1",
    "resource": {
      "resourceType": "Claim",
      "id": "b8a84430-e492-4952-80be-acf96ae66ae1",
      "meta": {
        "profile": [ "http://hl7.org/fhir/us/qicore/StructureDefinition/qicore-claim" ]
      },
      "status": "active",
      "type": {
        "coding": [ {
          "system": "http://terminology.hl7.org/CodeSystem/claim-type",
          "code": "professional",
          "display": "Professional"
        } ]
      },
      "use": "claim",
      "patient": {
        "reference": "Patient/fd4ea84b-cd39-4d03-9641-9ca8d10bbe67"
      },
      "created": "2026-12-12",
      "provider": {
        "reference": "Practitioner/29014aab-08e9-4a16-8b88-5e3e6b557552"
      },
      "priority": {
        "coding": [ {
          "system": "http://terminology.hl7.org/CodeSystem/processpriority",
          "code": "normal"
        } ]
      },
      "diagnosis": [ {
        "sequence": 2,
        "diagnosisCodeableConcept": {
          "coding": [ {
            "system": "http://hl7.org/fhir/sid/icd-10-cm",
            "code": "W01.0XXA"
          } ]
        },
        "onAdmission": {
          "coding": [ {
            "system": "https://www.cms.gov/Medicare/Medicare-Fee-for-Service-Payment/HospitalAcqCond/Coding",
            "code": "N"
          } ]
        }
      } ],
      "insurance": [ {
        "sequence": 1,
        "focal": true,
        "coverage": {
          "reference": "Coverage/00c1e669-1f05-414c-aca9-f61961d36c41"
        }
      } ],
      "item": [ {
        "sequence": 2,
        "diagnosisSequence": [ 1, 2, 3 ],
        "productOrService": {
          "coding": [ {
            "system": "http://terminology.hl7.org/CodeSystem/ex-USCLS",
            "code": "1101"
          } ]
        },
        "encounter": [ {
          "reference": "Encounter/f9f2e06f-d86b-4295-952c-2d7653ac6193"
        } ]
      } ]
    },
    "request": {
      "method": "PUT",
      "url": "Claim/b8a84430-e492-4952-80be-acf96ae66ae1"
    }
  }, {
    "fullUrl": "https://madie.cms.gov/Claim/ba77de47-03fb-41b3-bf5e-0e155fdc793e",
    "resource": {
      "resourceType": "Claim",
      "id": "ba77de47-03fb-41b3-bf5e-0e155fdc793e",
      "meta": {
        "profile": [ "http://hl7.org/fhir/us/qicore/StructureDefinition/qicore-claim" ]
      },
      "status": "active",
      "type": {
        "coding": [ {
          "system": "http://terminology.hl7.org/CodeSystem/claim-type",
          "code": "professional",
          "display": "Professional"
        } ]
      },
      "use": "claim",
      "patient": {
        "reference": "Patient/fd4ea84b-cd39-4d03-9641-9ca8d10bbe67"
      },
      "created": "2026-12-12",
      "provider": {
        "reference": "Practitioner/29014aab-08e9-4a16-8b88-5e3e6b557552"
      },
      "priority": {
        "coding": [ {
          "system": "http://terminology.hl7.org/CodeSystem/processpriority",
          "code": "normal"
        } ]
      },
      "diagnosis": [ {
        "sequence": 3,
        "diagnosisCodeableConcept": {
          "coding": [ {
            "system": "http://hl7.org/fhir/sid/icd-10-cm",
            "code": "S01.00XA"
          } ]
        },
        "onAdmission": {
          "coding": [ {
            "system": "https://www.cms.gov/Medicare/Medicare-Fee-for-Service-Payment/HospitalAcqCond/Coding",
            "code": "N"
          } ]
        }
      } ],
      "insurance": [ {
        "sequence": 1,
        "focal": true,
        "coverage": {
          "reference": "Coverage/00c1e669-1f05-414c-aca9-f61961d36c41"
        }
      } ],
      "item": [ {
        "sequence": 3,
        "diagnosisSequence": [ 1, 2, 3 ],
        "productOrService": {
          "coding": [ {
            "system": "http://terminology.hl7.org/CodeSystem/ex-USCLS",
            "code": "1101"
          } ]
        },
        "encounter": [ {
          "reference": "Encounter/f9f2e06f-d86b-4295-952c-2d7653ac6193"
        } ]
      } ]
    },
    "request": {
      "method": "PUT",
      "url": "Claim/ba77de47-03fb-41b3-bf5e-0e155fdc793e"
    }
  }, {
    "fullUrl": "https://madie.cms.gov/Practitioner/29014aab-08e9-4a16-8b88-5e3e6b557552",
    "resource": {
      "resourceType": "Practitioner",
      "id": "29014aab-08e9-4a16-8b88-5e3e6b557552",
      "identifier": [ {
        "system": "http://www.cms.gov/identifiers/pracitioners",
        "value": "P12345"
      } ],
      "name": [ {
        "use": "official",
        "family": "Smith",
        "given": [ "John" ]
      } ],
      "qualification": [ {
        "identifier": [ {
          "system": "http://hl7.org/fhir/sid/us-npi",
          "value": "1234567890"
        } ],
        "code": {
          "coding": [ {
            "system": "http://terminology.hl7.org/CodeSystem/v2-0203",
            "code": "MD",
            "display": "Medical License number"
          } ]
        }
      } ]
    },
    "request": {
      "method": "PUT",
      "url": "Practitioner/29014aab-08e9-4a16-8b88-5e3e6b557552"
    }
  }, {
    "fullUrl": "https://madie.cms.gov/Coverage/00c1e669-1f05-414c-aca9-f61961d36c41",
    "resource": {
      "resourceType": "Coverage",
      "id": "00c1e669-1f05-414c-aca9-f61961d36c41",
      "status": "active",
      "beneficiary": {
        "reference": "Patient/fd4ea84b-cd39-4d03-9641-9ca8d10bbe67"
      },
      "payor": [ {
        "reference": "Organization/5409d0a1-d0cc-4def-a584-ce1a4a737aed"
      } ]
    },
    "request": {
      "method": "PUT",
      "url": "Coverage/00c1e669-1f05-414c-aca9-f61961d36c41"
    }
  }, {
    "fullUrl": "https://madie.cms.gov/Organization/5409d0a1-d0cc-4def-a584-ce1a4a737aed",
    "resource": {
      "resourceType": "Organization",
      "id": "5409d0a1-d0cc-4def-a584-ce1a4a737aed",
      "identifier": [ {
        "system": "http://cms.gov/insurance-ids",
        "value": "AET12345"
      } ],
      "type": [ {
        "coding": [ {
          "system": "http://terminology.hl7.org/CodeSystem/organization-type",
          "code": "prov",
          "display": "Healthcare Provider"
        } ]
      } ],
      "name": "Aetna Insurance",
      "telecom": [ {
        "system": "phone",
        "value": "+1-800-123-4567"
      } ],
      "address": [ {
        "line": [ "123 Main Street" ],
        "city": "Cityville",
        "state": "CA",
        "postalCode": "12345",
        "country": "USA"
      } ]
    },
    "request": {
      "method": "PUT",
      "url": "Organization/5409d0a1-d0cc-4def-a584-ce1a4a737aed"
    }
  }, {
    "fullUrl": "https://madie.cms.gov/MeasureReport/562cf83b-a50a-46d6-ad86-5b037e506bd6",
    "resource": {
      "resourceType": "MeasureReport",
      "id": "562cf83b-a50a-46d6-ad86-5b037e506bd6",
      "meta": {
        "profile": [ "http://hl7.org/fhir/us/cqfmeasures/StructureDefinition/test-case-cqfm" ]
      },
      "contained": [ {
        "resourceType": "Parameters",
        "id": "2a8bb295-dfe7-457a-85da-94a5f7caab74-parameters",
        "parameter": [ {
          "name": "subject",
          "valueString": "fd4ea84b-cd39-4d03-9641-9ca8d10bbe67"
        } ]
      } ],
      "extension": [ {
        "url": "http://hl7.org/fhir/StructureDefinition/cqf-inputParameters",
        "valueReference": {
          "reference": "#2a8bb295-dfe7-457a-85da-94a5f7caab74-parameters"
        }
      }, {
        "url": "http://hl7.org/fhir/us/cqfmeasures/StructureDefinition/cqfm-testCaseDescription",
        "valueMarkdown": "Enc 1: Adverse Event Fall in Observation. Injury NPOA. Meets Num. Num MO = 1, Den MO = 4\nEnc 2:  Fall POA. Injury NPOA and adverse event Fall during encounter meets Num.  "
      } ],
      "modifierExtension": [ {
        "url": "http://hl7.org/fhir/us/cqfmeasures/StructureDefinition/cqfm-isTestCase",
        "valueBoolean": true
      } ],
      "status": "complete",
      "type": "individual",
      "measure": "https://madie.cms.gov/Measure/CMS1017FHIRHHFI",
      "period": {
        "start": "2026-01-01",
        "end": "2026-12-31"
      },
      "group": [ {
        "id": "Group_1",
        "population": [ {
          "id": "InitialPopulation_1",
          "code": {
            "coding": [ {
              "system": "http://terminology.hl7.org/CodeSystem/measure-population",
              "code": "initial-population",
              "display": "Initial Population"
            } ]
          },
          "count": 2
        }, {
          "id": "Denominator_1",
          "code": {
            "coding": [ {
              "system": "http://terminology.hl7.org/CodeSystem/measure-population",
              "code": "denominator",
              "display": "Denominator"
            } ]
          },
          "count": 2
        }, {
          "id": "DenominatorExclusion_1",
          "code": {
            "coding": [ {
              "system": "http://terminology.hl7.org/CodeSystem/measure-population",
              "code": "denominator-exclusion",
              "display": "Denominator Exclusion"
            } ]
          },
          "count": 1
        }, {
          "id": "Numerator_1",
          "code": {
            "coding": [ {
              "system": "http://terminology.hl7.org/CodeSystem/measure-population",
              "code": "numerator",
              "display": "Numerator"
            } ]
          },
          "count": 2
        }, {
          "id": "NumeratorExclusion_1",
          "code": {
            "coding": [ {
              "system": "http://terminology.hl7.org/CodeSystem/measure-population",
              "code": "numerator-exclusion",
              "display": "Numerator Exclusion"
            } ]
          },
          "count": 1
        }, {
          "id": "MeasureObservation_1_1_1",
          "code": {
            "coding": [ {
              "system": "http://terminology.hl7.org/CodeSystem/measure-population",
              "code": "measure-observation",
              "display": "Measure Observation"
            } ]
          },
          "count": 4
        }, {
          "id": "MeasureObservation_1_2_1",
          "code": {
            "coding": [ {
              "system": "http://terminology.hl7.org/CodeSystem/measure-population",
              "code": "measure-observation",
              "display": "Measure Observation"
            } ]
          },
          "count": 1
        } ],
        "measureScore": {
          "value": 0.0
        }
      } ],
      "evaluatedResource": [ {
        "reference": "Encounter/f9f2e06f-d86b-4295-952c-2d7653ac6193"
      }, {
        "reference": "Encounter/f58591fa-68dd-4a0e-a708-9a8c316e2806"
      }, {
        "reference": "Patient/fd4ea84b-cd39-4d03-9641-9ca8d10bbe67"
      }, {
        "reference": "AdverseEvent/90381995-274f-476a-8468-960236611423"
      }, {
        "reference": "AdverseEvent/dd89ed43-80a5-4e5b-88c7-e16bb536e81c"
      }, {
        "reference": "Claim/0933e48c-09a2-45a4-90db-4df97d6bab9e"
      }, {
        "reference": "Claim/102f29c4-53ec-488e-b827-1a1446a7ac92"
      }, {
        "reference": "Claim/92d856b0-663e-4142-9d03-20773ad78505"
      }, {
        "reference": "Claim/b8a84430-e492-4952-80be-acf96ae66ae1"
      }, {
        "reference": "Claim/ba77de47-03fb-41b3-bf5e-0e155fdc793e"
      }, {
        "reference": "Practitioner/29014aab-08e9-4a16-8b88-5e3e6b557552"
      }, {
        "reference": "Coverage/00c1e669-1f05-414c-aca9-f61961d36c41"
      }, {
        "reference": "Organization/5409d0a1-d0cc-4def-a584-ce1a4a737aed"
      } ]
    },
    "request": {
      "method": "PUT",
      "url": "MeasureReport/562cf83b-a50a-46d6-ad86-5b037e506bd6"
    }
  } ]
}