{
  "resourceType": "Bundle",
  "id": "NUMERPass-FallNullPOAModerateInjuryNullPOA",
  "type": "transaction",
  "entry": [ {
    "fullUrl": "https://madie.cms.gov/Claim/ef1adcb2-fef0-473d-9f10-f779c4100343",
    "resource": {
      "resourceType": "Claim",
      "id": "ef1adcb2-fef0-473d-9f10-f779c4100343",
      "meta": {
        "profile": [ "http://hl7.org/fhir/us/qicore/StructureDefinition/qicore-claim" ]
      },
      "status": "active",
      "type": {
        "coding": [ {
          "system": "http://terminology.hl7.org/CodeSystem/claim-type",
          "code": "professional",
          "display": "Professional"
        } ]
      },
      "use": "claim",
      "patient": {
        "reference": "Patient/e3212bfa-f3a9-4323-8993-9ef74c2f8d89"
      },
      "created": "2026-11-12",
      "provider": {
        "reference": "Practitioner/practitioner-1"
      },
      "priority": {
        "coding": [ {
          "system": "http://terminology.hl7.org/CodeSystem/processpriority",
          "code": "normal"
        } ]
      },
      "diagnosis": [ {
        "sequence": 1,
        "diagnosisReference": {
          "reference": "Condition/4b8ced77-d22f-4ba9-a31a-e6bfd966696a"
        }
      } ],
      "insurance": [ {
        "sequence": 1,
        "focal": true,
        "coverage": {
          "reference": "Coverage/coverage-1"
        }
      } ],
      "item": [ {
        "sequence": 1,
        "diagnosisSequence": [ 1, 2 ],
        "productOrService": {
          "coding": [ {
            "system": "http://terminology.hl7.org/CodeSystem/ex-USCLS",
            "code": "1101"
          } ]
        },
        "encounter": [ {
          "reference": "Encounter/147720e9-fdaa-4df5-ac47-d0e7b1b793ea"
        } ]
      } ]
    },
    "request": {
      "method": "PUT",
      "url": "Claim/ef1adcb2-fef0-473d-9f10-f779c4100343"
    }
  }, {
    "fullUrl": "https://madie.cms.gov/Claim/542483a6-d6b8-4ac4-8b8f-1311981aa467",
    "resource": {
      "resourceType": "Claim",
      "id": "542483a6-d6b8-4ac4-8b8f-1311981aa467",
      "meta": {
        "profile": [ "http://hl7.org/fhir/us/qicore/StructureDefinition/qicore-claim" ]
      },
      "status": "active",
      "type": {
        "coding": [ {
          "system": "http://terminology.hl7.org/CodeSystem/claim-type",
          "code": "professional",
          "display": "Professional"
        } ]
      },
      "use": "claim",
      "patient": {
        "reference": "Patient/e3212bfa-f3a9-4323-8993-9ef74c2f8d89"
      },
      "created": "2026-11-12",
      "provider": {
        "reference": "Practitioner/practitioner-1"
      },
      "priority": {
        "coding": [ {
          "system": "http://terminology.hl7.org/CodeSystem/processpriority",
          "code": "normal"
        } ]
      },
      "diagnosis": [ {
        "sequence": 2,
        "diagnosisReference": {
          "reference": "Condition/47fd50ac-c6ff-47a8-b5ca-1f12f5e64ab2"
        }
      } ],
      "insurance": [ {
        "sequence": 1,
        "focal": true,
        "coverage": {
          "reference": "Coverage/coverage-1"
        }
      } ],
      "item": [ {
        "sequence": 1,
        "diagnosisSequence": [ 1, 2 ],
        "productOrService": {
          "coding": [ {
            "system": "http://terminology.hl7.org/CodeSystem/ex-USCLS",
            "code": "1101"
          } ]
        },
        "encounter": [ {
          "reference": "Encounter/147720e9-fdaa-4df5-ac47-d0e7b1b793ea"
        } ]
      } ]
    },
    "request": {
      "method": "PUT",
      "url": "Claim/542483a6-d6b8-4ac4-8b8f-1311981aa467"
    }
  }, {
    "fullUrl": "https://madie.cms.gov/Encounter/147720e9-fdaa-4df5-ac47-d0e7b1b793ea",
    "resource": {
      "resourceType": "Encounter",
      "id": "147720e9-fdaa-4df5-ac47-d0e7b1b793ea",
      "meta": {
        "profile": [ "http://hl7.org/fhir/us/qicore/StructureDefinition/qicore-encounter" ]
      },
      "status": "finished",
      "class": {
        "system": "http://terminology.hl7.org/CodeSystem/v3-ActCode",
        "code": "IMP",
        "display": "inpatient encounter"
      },
      "type": [ {
        "coding": [ {
          "system": "http://snomed.info/sct",
          "code": "183452005"
        } ]
      } ],
      "subject": {
        "reference": "Patient/e3212bfa-f3a9-4323-8993-9ef74c2f8d89"
      },
      "period": {
        "start": "2026-11-09T11:00:00.000+00:00",
        "end": "2026-11-13T08:15:00.000+00:00"
      },
      "reasonReference": [ {
        "reference": "Condition/4b8ced77-d22f-4ba9-a31a-e6bfd966696a"
      }, {
        "reference": "Condition/47fd50ac-c6ff-47a8-b5ca-1f12f5e64ab2"
      } ]
    },
    "request": {
      "method": "PUT",
      "url": "Encounter/147720e9-fdaa-4df5-ac47-d0e7b1b793ea"
    }
  }, {
    "fullUrl": "https://madie.cms.gov/Encounter/b8dbea11-d37f-4ff7-af49-a8be11b22ffb",
    "resource": {
      "resourceType": "Encounter",
      "id": "b8dbea11-d37f-4ff7-af49-a8be11b22ffb",
      "meta": {
        "profile": [ "http://hl7.org/fhir/us/qicore/StructureDefinition/qicore-encounter" ]
      },
      "status": "finished",
      "class": {
        "system": "http://terminology.hl7.org/CodeSystem/v3-ActCode",
        "code": "IMP",
        "display": "inpatient encounter"
      },
      "type": [ {
        "coding": [ {
          "system": "http://snomed.info/sct",
          "code": "4525004"
        } ]
      } ],
      "subject": {
        "reference": "Patient/e3212bfa-f3a9-4323-8993-9ef74c2f8d89"
      },
      "period": {
        "start": "2026-11-09T08:00:00.000+00:00",
        "end": "2026-11-09T10:15:00.000+00:00"
      }
    },
    "request": {
      "method": "PUT",
      "url": "Encounter/b8dbea11-d37f-4ff7-af49-a8be11b22ffb"
    }
  }, {
    "fullUrl": "https://madie.cms.gov/Condition/47fd50ac-c6ff-47a8-b5ca-1f12f5e64ab2",
    "resource": {
      "resourceType": "Condition",
      "id": "47fd50ac-c6ff-47a8-b5ca-1f12f5e64ab2",
      "meta": {
        "profile": [ "http://hl7.org/fhir/us/qicore/StructureDefinition/qicore-condition-encounter-diagnosis" ]
      },
      "clinicalStatus": {
        "coding": [ {
          "system": "http://terminology.hl7.org/CodeSystem/condition-clinical",
          "code": "active"
        } ]
      },
      "verificationStatus": {
        "coding": [ {
          "system": "http://terminology.hl7.org/CodeSystem/condition-ver-status",
          "code": "confirmed"
        } ]
      },
      "category": [ {
        "coding": [ {
          "system": "http://terminology.hl7.org/CodeSystem/condition-category",
          "code": "encounter-diagnosis",
          "display": "Encounter Diagnosis"
        } ]
      } ],
      "code": {
        "coding": [ {
          "system": "http://hl7.org/fhir/sid/icd-10-cm",
          "code": "W19.XXXA"
        } ]
      },
      "subject": {
        "reference": "Patient/e3212bfa-f3a9-4323-8993-9ef74c2f8d89"
      },
      "encounter": {
        "reference": "Encounter/147720e9-fdaa-4df5-ac47-d0e7b1b793ea"
      }
    },
    "request": {
      "method": "PUT",
      "url": "Condition/47fd50ac-c6ff-47a8-b5ca-1f12f5e64ab2"
    }
  }, {
    "fullUrl": "https://madie.cms.gov/Condition/4b8ced77-d22f-4ba9-a31a-e6bfd966696a",
    "resource": {
      "resourceType": "Condition",
      "id": "4b8ced77-d22f-4ba9-a31a-e6bfd966696a",
      "meta": {
        "profile": [ "http://hl7.org/fhir/us/qicore/StructureDefinition/qicore-condition-encounter-diagnosis" ]
      },
      "clinicalStatus": {
        "coding": [ {
          "system": "http://terminology.hl7.org/CodeSystem/condition-clinical",
          "code": "active"
        } ]
      },
      "verificationStatus": {
        "coding": [ {
          "system": "http://terminology.hl7.org/CodeSystem/condition-ver-status",
          "code": "confirmed"
        } ]
      },
      "category": [ {
        "coding": [ {
          "system": "http://terminology.hl7.org/CodeSystem/condition-category",
          "code": "encounter-diagnosis",
          "display": "Encounter Diagnosis"
        } ]
      } ],
      "code": {
        "coding": [ {
          "system": "http://hl7.org/fhir/sid/icd-10-cm",
          "code": "S01.00XA"
        } ]
      },
      "subject": {
        "reference": "Patient/e3212bfa-f3a9-4323-8993-9ef74c2f8d89"
      },
      "encounter": {
        "reference": "Encounter/147720e9-fdaa-4df5-ac47-d0e7b1b793ea"
      }
    },
    "request": {
      "method": "PUT",
      "url": "Condition/4b8ced77-d22f-4ba9-a31a-e6bfd966696a"
    }
  }, {
    "fullUrl": "https://madie.cms.gov/Patient/e3212bfa-f3a9-4323-8993-9ef74c2f8d89",
    "resource": {
      "resourceType": "Patient",
      "id": "e3212bfa-f3a9-4323-8993-9ef74c2f8d89",
      "meta": {
        "profile": [ "http://hl7.org/fhir/us/qicore/StructureDefinition/qicore-patient" ]
      },
      "extension": [ {
        "url": "http://hl7.org/fhir/us/core/StructureDefinition/us-core-race",
        "extension": [ {
          "url": "ombCategory",
          "valueCoding": {
            "system": "urn:oid:2.16.840.1.113883.6.238",
            "code": "2028-9",
            "display": "Asian",
            "userSelected": true
          }
        }, {
          "url": "text",
          "valueString": "Asian"
        } ]
      }, {
        "url": "http://hl7.org/fhir/us/core/StructureDefinition/us-core-ethnicity",
        "extension": [ {
          "url": "ombCategory",
          "valueCoding": {
            "system": "urn:oid:2.16.840.1.113883.6.238",
            "code": "2186-5",
            "display": "Not Hispanic or Latino",
            "userSelected": true
          }
        }, {
          "url": "text",
          "valueString": "Not Hispanic or Latino"
        } ]
      } ],
      "identifier": [ {
        "type": {
          "coding": [ {
            "system": "http://terminology.hl7.org/CodeSystem/v2-0203",
            "code": "MR"
          } ]
        },
        "system": "https://bonnie-fhir.healthit.gov/",
        "value": "61152a3b98086b7a79cbd7c1"
      } ],
      "active": true,
      "name": [ {
        "use": "usual",
        "family": "NUMERPass",
        "given": [ "FallNullPOAModerateInjuryNullPOA" ]
      } ],
      "gender": "male",
      "birthDate": "2000-09-09"
    },
    "request": {
      "method": "PUT",
      "url": "Patient/e3212bfa-f3a9-4323-8993-9ef74c2f8d89"
    }
  }, {
    "fullUrl": "https://madie.cms.gov/Practitioner/b994ee47-4b1b-43b8-97e0-acd56864d988",
    "resource": {
      "resourceType": "Practitioner",
      "id": "b994ee47-4b1b-43b8-97e0-acd56864d988",
      "identifier": [ {
        "system": "http://www.cms.gov/identifiers/pracitioners",
        "value": "P12345"
      } ],
      "name": [ {
        "use": "official",
        "family": "Smith",
        "given": [ "John" ]
      } ],
      "qualification": [ {
        "identifier": [ {
          "system": "http://hl7.org/fhir/sid/us-npi",
          "value": "1234567890"
        } ],
        "code": {
          "coding": [ {
            "system": "http://terminology.hl7.org/CodeSystem/v2-0203",
            "code": "MD",
            "display": "Medical License number"
          } ]
        }
      } ]
    },
    "request": {
      "method": "PUT",
      "url": "Practitioner/b994ee47-4b1b-43b8-97e0-acd56864d988"
    }
  }, {
    "fullUrl": "https://madie.cms.gov/Coverage/bca421d6-90b9-477c-97bf-e2eb62401f29",
    "resource": {
      "resourceType": "Coverage",
      "id": "bca421d6-90b9-477c-97bf-e2eb62401f29",
      "status": "active",
      "beneficiary": {
        "reference": "Patient/e3212bfa-f3a9-4323-8993-9ef74c2f8d89"
      },
      "payor": [ {
        "reference": "Organization/a410f949-4276-4b0b-a8db-6c372e048be9"
      } ]
    },
    "request": {
      "method": "PUT",
      "url": "Coverage/bca421d6-90b9-477c-97bf-e2eb62401f29"
    }
  }, {
    "fullUrl": "https://madie.cms.gov/Organization/a410f949-4276-4b0b-a8db-6c372e048be9",
    "resource": {
      "resourceType": "Organization",
      "id": "a410f949-4276-4b0b-a8db-6c372e048be9",
      "identifier": [ {
        "system": "http://cms.gov/insurance-ids",
        "value": "AET12345"
      } ],
      "type": [ {
        "coding": [ {
          "system": "http://terminology.hl7.org/CodeSystem/organization-type",
          "code": "prov",
          "display": "Healthcare Provider"
        } ]
      } ],
      "name": "Aetna Insurance",
      "telecom": [ {
        "system": "phone",
        "value": "+1-800-123-4567"
      } ],
      "address": [ {
        "line": [ "123 Main Street" ],
        "city": "Cityville",
        "state": "CA",
        "postalCode": "12345",
        "country": "USA"
      } ]
    },
    "request": {
      "method": "PUT",
      "url": "Organization/a410f949-4276-4b0b-a8db-6c372e048be9"
    }
  }, {
    "fullUrl": "https://madie.cms.gov/MeasureReport/6b883ce3-2dc0-4f1f-8355-a0255704aa90",
    "resource": {
      "resourceType": "MeasureReport",
      "id": "6b883ce3-2dc0-4f1f-8355-a0255704aa90",
      "meta": {
        "profile": [ "http://hl7.org/fhir/us/cqfmeasures/StructureDefinition/test-case-cqfm" ]
      },
      "contained": [ {
        "resourceType": "Parameters",
        "id": "2c165e5d-384c-4706-ba67-8602bdbb3657-parameters",
        "parameter": [ {
          "name": "subject",
          "valueString": "e3212bfa-f3a9-4323-8993-9ef74c2f8d89"
        } ]
      } ],
      "extension": [ {
        "url": "http://hl7.org/fhir/StructureDefinition/cqf-inputParameters",
        "valueReference": {
          "reference": "#2c165e5d-384c-4706-ba67-8602bdbb3657-parameters"
        }
      }, {
        "url": "http://hl7.org/fhir/us/cqfmeasures/StructureDefinition/cqfm-testCaseDescription",
        "valueMarkdown": "Encounter with Fall diag and injury diag both w/null POA flags. Unless POA flags explicitly indicate POA (e.g., N or U) then diagnosis is assumed to be not present on admission. \nMeets Numerator. "
      } ],
      "modifierExtension": [ {
        "url": "http://hl7.org/fhir/us/cqfmeasures/StructureDefinition/cqfm-isTestCase",
        "valueBoolean": true
      } ],
      "status": "complete",
      "type": "individual",
      "measure": "https://madie.cms.gov/Measure/CMS1017FHIRHHFI",
      "period": {
        "start": "2026-01-01",
        "end": "2026-12-31"
      },
      "group": [ {
        "id": "Group_1",
        "population": [ {
          "id": "InitialPopulation_1",
          "code": {
            "coding": [ {
              "system": "http://terminology.hl7.org/CodeSystem/measure-population",
              "code": "initial-population",
              "display": "Initial Population"
            } ]
          },
          "count": 1
        }, {
          "id": "Denominator_1",
          "code": {
            "coding": [ {
              "system": "http://terminology.hl7.org/CodeSystem/measure-population",
              "code": "denominator",
              "display": "Denominator"
            } ]
          },
          "count": 1
        }, {
          "id": "DenominatorExclusion_1",
          "code": {
            "coding": [ {
              "system": "http://terminology.hl7.org/CodeSystem/measure-population",
              "code": "denominator-exclusion",
              "display": "Denominator Exclusion"
            } ]
          },
          "count": 0
        }, {
          "id": "Numerator_1",
          "code": {
            "coding": [ {
              "system": "http://terminology.hl7.org/CodeSystem/measure-population",
              "code": "numerator",
              "display": "Numerator"
            } ]
          },
          "count": 1
        }, {
          "id": "NumeratorExclusion_1",
          "code": {
            "coding": [ {
              "system": "http://terminology.hl7.org/CodeSystem/measure-population",
              "code": "numerator-exclusion",
              "display": "Numerator Exclusion"
            } ]
          },
          "count": 0
        }, {
          "id": "MeasureObservation_1_1_1",
          "code": {
            "coding": [ {
              "system": "http://terminology.hl7.org/CodeSystem/measure-population",
              "code": "measure-observation",
              "display": "Measure Observation"
            } ]
          },
          "count": 4
        }, {
          "id": "MeasureObservation_1_2_1",
          "code": {
            "coding": [ {
              "system": "http://terminology.hl7.org/CodeSystem/measure-population",
              "code": "measure-observation",
              "display": "Measure Observation"
            } ]
          },
          "count": 1
        } ],
        "measureScore": {
          "value": 0.0
        }
      } ],
      "evaluatedResource": [ {
        "reference": "Claim/ef1adcb2-fef0-473d-9f10-f779c4100343"
      }, {
        "reference": "Claim/542483a6-d6b8-4ac4-8b8f-1311981aa467"
      }, {
        "reference": "Encounter/147720e9-fdaa-4df5-ac47-d0e7b1b793ea"
      }, {
        "reference": "Encounter/b8dbea11-d37f-4ff7-af49-a8be11b22ffb"
      }, {
        "reference": "Condition/47fd50ac-c6ff-47a8-b5ca-1f12f5e64ab2"
      }, {
        "reference": "Condition/4b8ced77-d22f-4ba9-a31a-e6bfd966696a"
      }, {
        "reference": "Patient/e3212bfa-f3a9-4323-8993-9ef74c2f8d89"
      }, {
        "reference": "Practitioner/b994ee47-4b1b-43b8-97e0-acd56864d988"
      }, {
        "reference": "Coverage/bca421d6-90b9-477c-97bf-e2eb62401f29"
      }, {
        "reference": "Organization/a410f949-4276-4b0b-a8db-6c372e048be9"
      } ]
    },
    "request": {
      "method": "PUT",
      "url": "MeasureReport/6b883ce3-2dc0-4f1f-8355-a0255704aa90"
    }
  } ]
}