{
  "resourceType": "Bundle",
  "id": "tests-NumerPass-RVwithOpioidOrderAtAdmission-bundle",
  "type": "transaction",
  "entry": [ {
    "fullUrl": "https://madie.cms.gov/Encounter/02ba5616-c889-4a0c-bbee-c7548aca5554",
    "resource": {
      "resourceType": "Encounter",
      "id": "02ba5616-c889-4a0c-bbee-c7548aca5554",
      "meta": {
        "profile": [ "http://hl7.org/fhir/us/qicore/StructureDefinition/qicore-encounter" ]
      },
      "status": "finished",
      "class": {
        "system": "http://terminology.hl7.org/CodeSystem/v3-ActCode",
        "code": "IMP",
        "display": "inpatient encounter"
      },
      "type": [ {
        "coding": [ {
          "system": "http://snomed.info/sct",
          "code": "183452005"
        } ]
      } ],
      "subject": {
        "reference": "Patient/ca728a1a-9a25-46b6-80bc-bfffae233f6c"
      },
      "period": {
        "start": "2026-10-19T08:30:00.000+00:00",
        "end": "2026-10-31T08:15:00.000+00:00"
      },
      "reasonCode": [ {
        "coding": [ {
          "system": "http://snomed.info/sct",
          "code": "14047009"
        } ]
      }, {
        "coding": [ {
          "system": "http://snomed.info/sct",
          "code": "64859006"
        } ]
      } ]
    },
    "request": {
      "method": "PUT",
      "url": "Encounter/02ba5616-c889-4a0c-bbee-c7548aca5554"
    }
  }, {
    "fullUrl": "https://madie.cms.gov/Encounter/f68e3b2d-2825-4082-a70f-b3acc1e15413",
    "resource": {
      "resourceType": "Encounter",
      "id": "f68e3b2d-2825-4082-a70f-b3acc1e15413",
      "meta": {
        "profile": [ "http://hl7.org/fhir/us/qicore/StructureDefinition/qicore-encounter" ]
      },
      "status": "finished",
      "class": {
        "system": "http://terminology.hl7.org/CodeSystem/v3-ActCode",
        "code": "EMER",
        "display": "emergency encounter"
      },
      "type": [ {
        "coding": [ {
          "system": "http://snomed.info/sct",
          "code": "4525004"
        } ]
      } ],
      "subject": {
        "reference": "Patient/ca728a1a-9a25-46b6-80bc-bfffae233f6c"
      },
      "period": {
        "start": "2026-10-18T09:15:00.000+00:00",
        "end": "2026-10-19T08:15:00.000+00:00"
      }
    },
    "request": {
      "method": "PUT",
      "url": "Encounter/f68e3b2d-2825-4082-a70f-b3acc1e15413"
    }
  }, {
    "fullUrl": "https://madie.cms.gov/Patient/ca728a1a-9a25-46b6-80bc-bfffae233f6c",
    "resource": {
      "resourceType": "Patient",
      "id": "ca728a1a-9a25-46b6-80bc-bfffae233f6c",
      "meta": {
        "profile": [ "http://hl7.org/fhir/us/qicore/StructureDefinition/qicore-patient" ]
      },
      "extension": [ {
        "url": "http://hl7.org/fhir/us/core/StructureDefinition/us-core-race",
        "extension": [ {
          "url": "ombCategory",
          "valueCoding": {
            "system": "urn:oid:2.16.840.1.113883.6.238",
            "code": "2106-3",
            "display": "White"
          }
        }, {
          "url": "text",
          "valueString": "White"
        } ]
      }, {
        "url": "http://hl7.org/fhir/us/core/StructureDefinition/us-core-ethnicity",
        "extension": [ {
          "url": "ombCategory",
          "valueCoding": {
            "system": "urn:oid:2.16.840.1.113883.6.238",
            "code": "2135-2",
            "display": "Hispanic or Latino"
          }
        }, {
          "url": "text",
          "valueString": "Hispanic or Latino"
        } ]
      }, {
        "url": "http://hl7.org/fhir/us/core/StructureDefinition/us-core-sex",
        "valueCode": "248153007"
      } ],
      "identifier": [ {
        "system": "http://hospital.smarthealthit.org",
        "value": "999999999"
      } ],
      "name": [ {
        "family": "Example",
        "given": [ "Patient" ]
      } ],
      "gender": "female",
      "birthDate": "1956-01-01"
    },
    "request": {
      "method": "PUT",
      "url": "Patient/ca728a1a-9a25-46b6-80bc-bfffae233f6c"
    }
  }, {
    "fullUrl": "https://madie.cms.gov/Claim/5f9a8f46-8258-4043-8585-c6b80cb935c7",
    "resource": {
      "resourceType": "Claim",
      "id": "5f9a8f46-8258-4043-8585-c6b80cb935c7",
      "meta": {
        "profile": [ "http://hl7.org/fhir/us/qicore/StructureDefinition/qicore-claim" ]
      },
      "status": "active",
      "type": {
        "coding": [ {
          "system": "http://terminology.hl7.org/CodeSystem/claim-type",
          "code": "institutional",
          "display": "Institutional"
        } ]
      },
      "use": "claim",
      "patient": {
        "reference": "Patient/ca728a1a-9a25-46b6-80bc-bfffae233f6c"
      },
      "created": "2026-10-22",
      "provider": {
        "reference": "Practitioner/practitioner-1"
      },
      "priority": {
        "coding": [ {
          "system": "http://terminology.hl7.org/CodeSystem/processpriority",
          "code": "normal"
        } ]
      },
      "diagnosis": [ {
        "sequence": 1,
        "diagnosisCodeableConcept": {
          "coding": [ {
            "system": "http://snomed.info/sct",
            "code": "14047009"
          } ]
        }
      } ],
      "insurance": [ {
        "sequence": 1,
        "focal": true,
        "coverage": {
          "reference": "Coverage/coverage-1"
        }
      } ],
      "item": [ {
        "sequence": 1,
        "diagnosisSequence": [ 1, 2 ],
        "productOrService": {
          "coding": [ {
            "system": "http://terminology.hl7.org/CodeSystem/ex-USCLS",
            "code": "1101"
          } ]
        },
        "encounter": [ {
          "reference": "Encounter/02ba5616-c889-4a0c-bbee-c7548aca5554"
        } ]
      } ]
    },
    "request": {
      "method": "PUT",
      "url": "Claim/5f9a8f46-8258-4043-8585-c6b80cb935c7"
    }
  }, {
    "fullUrl": "https://madie.cms.gov/Claim/5e9540d8-ffd6-4621-b556-b798c6527aac",
    "resource": {
      "resourceType": "Claim",
      "id": "5e9540d8-ffd6-4621-b556-b798c6527aac",
      "meta": {
        "profile": [ "http://hl7.org/fhir/us/qicore/StructureDefinition/qicore-claim" ]
      },
      "status": "active",
      "type": {
        "coding": [ {
          "system": "http://terminology.hl7.org/CodeSystem/claim-type",
          "code": "institutional",
          "display": "Institutional"
        } ]
      },
      "use": "claim",
      "patient": {
        "reference": "Patient/ca728a1a-9a25-46b6-80bc-bfffae233f6c"
      },
      "created": "2026-11-01",
      "provider": {
        "reference": "Practitioner/practitioner-1"
      },
      "priority": {
        "coding": [ {
          "system": "http://terminology.hl7.org/CodeSystem/processpriority",
          "code": "normal"
        } ]
      },
      "diagnosis": [ {
        "sequence": 1,
        "diagnosisCodeableConcept": {
          "coding": [ {
            "system": "http://hl7.org/fhir/sid/icd-10-cm",
            "code": "M80.00XA",
            "display": "Age-related osteoporosis with current pathological fracture, unspecified site, initial encounter for fracture"
          } ]
        }
      } ],
      "insurance": [ {
        "sequence": 1,
        "focal": true,
        "coverage": {
          "reference": "Coverage/coverage-1"
        }
      } ],
      "item": [ {
        "sequence": 1,
        "diagnosisSequence": [ 1, 2 ],
        "productOrService": {
          "coding": [ {
            "system": "http://terminology.hl7.org/CodeSystem/ex-USCLS",
            "code": "1101"
          } ]
        },
        "encounter": [ {
          "reference": "Encounter/02ba5616-c889-4a0c-bbee-c7548aca5554"
        } ]
      } ]
    },
    "request": {
      "method": "PUT",
      "url": "Claim/5e9540d8-ffd6-4621-b556-b798c6527aac"
    }
  }, {
    "fullUrl": "https://madie.cms.gov/MedicationRequest/28abc9c1-6382-40f4-9542-c6ee0a29acc5",
    "resource": {
      "resourceType": "MedicationRequest",
      "id": "28abc9c1-6382-40f4-9542-c6ee0a29acc5",
      "meta": {
        "profile": [ "http://hl7.org/fhir/us/qicore/StructureDefinition/qicore-medicationrequest" ]
      },
      "status": "active",
      "intent": "order",
      "category": [ {
        "coding": [ {
          "system": "http://terminology.hl7.org/CodeSystem/medicationrequest-category",
          "code": "community",
          "display": "Community"
        } ]
      } ],
      "medicationCodeableConcept": {
        "coding": [ {
          "system": "http://www.nlm.nih.gov/research/umls/rxnorm",
          "code": "1010600"
        } ]
      },
      "subject": {
        "reference": "Patient/ca728a1a-9a25-46b6-80bc-bfffae233f6c"
      },
      "authoredOn": "2026-10-15",
      "requester": {
        "reference": "Practitioner/practitioner-1"
      },
      "dispenseRequest": {
        "quantity": {
          "value": 14,
          "unit": "tablet",
          "system": "http://unitsofmeasure.org",
          "code": "{tablet}"
        },
        "expectedSupplyDuration": {
          "value": 14,
          "unit": "days",
          "system": "http://unitsofmeasure.org",
          "code": "d"
        }
      }
    },
    "request": {
      "method": "PUT",
      "url": "MedicationRequest/28abc9c1-6382-40f4-9542-c6ee0a29acc5"
    }
  }, {
    "fullUrl": "https://madie.cms.gov/Observation/335b3656-a352-4a9b-9255-cffaa30a833e",
    "resource": {
      "resourceType": "Observation",
      "id": "335b3656-a352-4a9b-9255-cffaa30a833e",
      "meta": {
        "profile": [ "http://hl7.org/fhir/us/core/StructureDefinition/us-core-bmi" ]
      },
      "status": "final",
      "category": [ {
        "coding": [ {
          "system": "http://terminology.hl7.org/CodeSystem/observation-category",
          "code": "vital-signs",
          "display": "Vital Signs"
        } ]
      } ],
      "code": {
        "coding": [ {
          "system": "http://loinc.org",
          "code": "39156-5",
          "display": "Body mass index (BMI) [Ratio]"
        } ],
        "text": "BMI"
      },
      "subject": {
        "reference": "Patient/ca728a1a-9a25-46b6-80bc-bfffae233f6c"
      },
      "effectiveDateTime": "2026-10-20T08:00:00.000+00:00",
      "valueQuantity": {
        "value": 28.3,
        "unit": "kg/m2",
        "system": "http://unitsofmeasure.org",
        "code": "kg/m2"
      }
    },
    "request": {
      "method": "PUT",
      "url": "Observation/335b3656-a352-4a9b-9255-cffaa30a833e"
    }
  }, {
    "fullUrl": "https://madie.cms.gov/Practitioner/472636a1-ca71-464e-b525-48b0ebad49f5",
    "resource": {
      "resourceType": "Practitioner",
      "id": "472636a1-ca71-464e-b525-48b0ebad49f5",
      "identifier": [ {
        "system": "http://www.cms.gov/identifiers/pracitioners",
        "value": "P12345"
      } ],
      "name": [ {
        "use": "official",
        "family": "Smith",
        "given": [ "John" ]
      } ],
      "qualification": [ {
        "identifier": [ {
          "system": "http://hl7.org/fhir/sid/us-npi",
          "value": "1234567890"
        } ],
        "code": {
          "coding": [ {
            "system": "http://terminology.hl7.org/CodeSystem/v2-0203",
            "code": "MD",
            "display": "Medical License number"
          } ]
        }
      } ]
    },
    "request": {
      "method": "PUT",
      "url": "Practitioner/472636a1-ca71-464e-b525-48b0ebad49f5"
    }
  }, {
    "fullUrl": "https://madie.cms.gov/Coverage/38cf2f89-bb8e-4a6d-9ab0-d1403a3c8bdb",
    "resource": {
      "resourceType": "Coverage",
      "id": "38cf2f89-bb8e-4a6d-9ab0-d1403a3c8bdb",
      "status": "active",
      "beneficiary": {
        "reference": "Patient/ca728a1a-9a25-46b6-80bc-bfffae233f6c"
      },
      "payor": [ {
        "reference": "Organization/db79a36b-063b-4eb1-a950-0b437ba438b3"
      } ]
    },
    "request": {
      "method": "PUT",
      "url": "Coverage/38cf2f89-bb8e-4a6d-9ab0-d1403a3c8bdb"
    }
  }, {
    "fullUrl": "https://madie.cms.gov/Organization/db79a36b-063b-4eb1-a950-0b437ba438b3",
    "resource": {
      "resourceType": "Organization",
      "id": "db79a36b-063b-4eb1-a950-0b437ba438b3",
      "identifier": [ {
        "system": "http://cms.gov/insurance-ids",
        "value": "AET12345"
      } ],
      "type": [ {
        "coding": [ {
          "system": "http://terminology.hl7.org/CodeSystem/organization-type",
          "code": "prov",
          "display": "Healthcare Provider"
        } ]
      } ],
      "name": "Aetna Insurance",
      "telecom": [ {
        "system": "phone",
        "value": "+1-800-123-4567"
      } ],
      "address": [ {
        "line": [ "123 Main Street" ],
        "city": "Cityville",
        "state": "CA",
        "postalCode": "12345",
        "country": "USA"
      } ]
    },
    "request": {
      "method": "PUT",
      "url": "Organization/db79a36b-063b-4eb1-a950-0b437ba438b3"
    }
  }, {
    "fullUrl": "https://madie.cms.gov/MeasureReport/606edc3d-82ba-4394-b410-e258392d6c95",
    "resource": {
      "resourceType": "MeasureReport",
      "id": "606edc3d-82ba-4394-b410-e258392d6c95",
      "meta": {
        "profile": [ "http://hl7.org/fhir/us/cqfmeasures/StructureDefinition/test-case-cqfm" ]
      },
      "contained": [ {
        "resourceType": "Parameters",
        "id": "792f4775-7822-4dae-9f20-deaa53eb15b6-parameters",
        "parameter": [ {
          "name": "subject",
          "valueString": "ca728a1a-9a25-46b6-80bc-bfffae233f6c"
        } ]
      } ],
      "extension": [ {
        "url": "http://hl7.org/fhir/StructureDefinition/cqf-inputParameters",
        "valueReference": {
          "reference": "#792f4775-7822-4dae-9f20-deaa53eb15b6-parameters"
        }
      }, {
        "url": "http://hl7.org/fhir/us/cqfmeasures/StructureDefinition/cqfm-testCaseDescription",
        "valueMarkdown": "RVariable Encounter With Opioid Order At Admission"
      } ],
      "modifierExtension": [ {
        "url": "http://hl7.org/fhir/us/cqfmeasures/StructureDefinition/cqfm-isTestCase",
        "valueBoolean": true
      } ],
      "status": "complete",
      "type": "individual",
      "measure": "https://madie.cms.gov/Measure/CMS1017FHIRHHFI",
      "period": {
        "start": "2026-01-01",
        "end": "2026-12-31"
      },
      "group": [ {
        "id": "Group_1",
        "population": [ {
          "id": "InitialPopulation_1",
          "code": {
            "coding": [ {
              "system": "http://terminology.hl7.org/CodeSystem/measure-population",
              "code": "initial-population",
              "display": "Initial Population"
            } ]
          },
          "count": 1
        }, {
          "id": "Denominator_1",
          "code": {
            "coding": [ {
              "system": "http://terminology.hl7.org/CodeSystem/measure-population",
              "code": "denominator",
              "display": "Denominator"
            } ]
          },
          "count": 1
        }, {
          "id": "DenominatorExclusion_1",
          "code": {
            "coding": [ {
              "system": "http://terminology.hl7.org/CodeSystem/measure-population",
              "code": "denominator-exclusion",
              "display": "Denominator Exclusion"
            } ]
          },
          "count": 0
        }, {
          "id": "Numerator_1",
          "code": {
            "coding": [ {
              "system": "http://terminology.hl7.org/CodeSystem/measure-population",
              "code": "numerator",
              "display": "Numerator"
            } ]
          },
          "count": 1
        }, {
          "id": "NumeratorExclusion_1",
          "code": {
            "coding": [ {
              "system": "http://terminology.hl7.org/CodeSystem/measure-population",
              "code": "numerator-exclusion",
              "display": "Numerator Exclusion"
            } ]
          },
          "count": 0
        }, {
          "id": "MeasureObservation_1_1_1",
          "code": {
            "coding": [ {
              "system": "http://terminology.hl7.org/CodeSystem/measure-population",
              "code": "measure-observation",
              "display": "Measure Observation"
            } ]
          },
          "count": 12
        }, {
          "id": "MeasureObservation_1_2_1",
          "code": {
            "coding": [ {
              "system": "http://terminology.hl7.org/CodeSystem/measure-population",
              "code": "measure-observation",
              "display": "Measure Observation"
            } ]
          },
          "count": 1
        } ],
        "measureScore": {
          "value": 0.0
        }
      } ],
      "evaluatedResource": [ {
        "reference": "Encounter/02ba5616-c889-4a0c-bbee-c7548aca5554"
      }, {
        "reference": "Encounter/f68e3b2d-2825-4082-a70f-b3acc1e15413"
      }, {
        "reference": "Patient/ca728a1a-9a25-46b6-80bc-bfffae233f6c"
      }, {
        "reference": "Claim/5f9a8f46-8258-4043-8585-c6b80cb935c7"
      }, {
        "reference": "Claim/5e9540d8-ffd6-4621-b556-b798c6527aac"
      }, {
        "reference": "MedicationRequest/28abc9c1-6382-40f4-9542-c6ee0a29acc5"
      }, {
        "reference": "Observation/335b3656-a352-4a9b-9255-cffaa30a833e"
      }, {
        "reference": "Practitioner/472636a1-ca71-464e-b525-48b0ebad49f5"
      }, {
        "reference": "Coverage/38cf2f89-bb8e-4a6d-9ab0-d1403a3c8bdb"
      }, {
        "reference": "Organization/db79a36b-063b-4eb1-a950-0b437ba438b3"
      } ]
    },
    "request": {
      "method": "PUT",
      "url": "MeasureReport/606edc3d-82ba-4394-b410-e258392d6c95"
    }
  } ]
}