{
  "resourceType": "Bundle",
  "id": "FallNullPOAInjuryNullPOA",
  "type": "transaction",
  "entry": [ {
    "fullUrl": "https://madie.cms.gov/Claim/d7510bdd-6505-4fb5-b819-6f83d84353d9",
    "resource": {
      "resourceType": "Claim",
      "id": "d7510bdd-6505-4fb5-b819-6f83d84353d9",
      "meta": {
        "profile": [ "http://hl7.org/fhir/us/qicore/StructureDefinition/qicore-claim" ]
      },
      "status": "active",
      "type": {
        "coding": [ {
          "system": "http://terminology.hl7.org/CodeSystem/claim-type",
          "code": "professional",
          "display": "Professional"
        } ]
      },
      "use": "claim",
      "patient": {
        "reference": "Patient/966cc666-8f6e-4d6e-93a9-0c4b6345e966"
      },
      "created": "2026-11-12",
      "provider": {
        "reference": "Practitioner/883994e8-c6b9-4d06-a2d7-70f1d1d8fd9e"
      },
      "priority": {
        "coding": [ {
          "system": "http://terminology.hl7.org/CodeSystem/processpriority",
          "code": "normal"
        } ]
      },
      "diagnosis": [ {
        "sequence": 1,
        "diagnosisReference": {
          "reference": "Condition/b5999589-4119-413e-92bf-43483e7cc9fa"
        }
      } ],
      "insurance": [ {
        "sequence": 1,
        "focal": true,
        "coverage": {
          "reference": "Coverage/6e7a1938-9fda-4b39-8a81-5894c5710312"
        }
      } ],
      "item": [ {
        "sequence": 1,
        "diagnosisSequence": [ 1, 2 ],
        "productOrService": {
          "coding": [ {
            "system": "http://terminology.hl7.org/CodeSystem/ex-USCLS",
            "code": "1101"
          } ]
        },
        "encounter": [ {
          "reference": "Encounter/829a2b45-1a49-4397-aa4e-84c7bef6b461"
        } ]
      } ]
    },
    "request": {
      "method": "PUT",
      "url": "Claim/d7510bdd-6505-4fb5-b819-6f83d84353d9"
    }
  }, {
    "fullUrl": "https://madie.cms.gov/Claim/55651511-a38a-4666-85be-70c7a5f009c1",
    "resource": {
      "resourceType": "Claim",
      "id": "55651511-a38a-4666-85be-70c7a5f009c1",
      "meta": {
        "profile": [ "http://hl7.org/fhir/us/qicore/StructureDefinition/qicore-claim" ]
      },
      "status": "active",
      "type": {
        "coding": [ {
          "system": "http://terminology.hl7.org/CodeSystem/claim-type",
          "code": "professional",
          "display": "Professional"
        } ]
      },
      "use": "claim",
      "patient": {
        "reference": "Patient/966cc666-8f6e-4d6e-93a9-0c4b6345e966"
      },
      "created": "2026-11-12",
      "provider": {
        "reference": "Practitioner/883994e8-c6b9-4d06-a2d7-70f1d1d8fd9e"
      },
      "priority": {
        "coding": [ {
          "system": "http://terminology.hl7.org/CodeSystem/processpriority",
          "code": "normal"
        } ]
      },
      "diagnosis": [ {
        "sequence": 2,
        "diagnosisReference": {
          "reference": "Condition/d637e426-59b4-4037-9098-dad900f0edb7"
        }
      } ],
      "insurance": [ {
        "sequence": 1,
        "focal": true,
        "coverage": {
          "reference": "Coverage/6e7a1938-9fda-4b39-8a81-5894c5710312"
        }
      } ],
      "item": [ {
        "sequence": 1,
        "diagnosisSequence": [ 1, 2 ],
        "productOrService": {
          "coding": [ {
            "system": "http://terminology.hl7.org/CodeSystem/ex-USCLS",
            "code": "1101"
          } ]
        },
        "encounter": [ {
          "reference": "Encounter/829a2b45-1a49-4397-aa4e-84c7bef6b461"
        } ]
      } ]
    },
    "request": {
      "method": "PUT",
      "url": "Claim/55651511-a38a-4666-85be-70c7a5f009c1"
    }
  }, {
    "fullUrl": "https://madie.cms.gov/Encounter/829a2b45-1a49-4397-aa4e-84c7bef6b461",
    "resource": {
      "resourceType": "Encounter",
      "id": "829a2b45-1a49-4397-aa4e-84c7bef6b461",
      "meta": {
        "profile": [ "http://hl7.org/fhir/us/qicore/StructureDefinition/qicore-encounter" ]
      },
      "status": "finished",
      "class": {
        "system": "http://terminology.hl7.org/CodeSystem/v3-ActCode",
        "code": "IMP",
        "display": "inpatient encounter"
      },
      "type": [ {
        "coding": [ {
          "system": "http://snomed.info/sct",
          "code": "183452005"
        } ]
      } ],
      "subject": {
        "reference": "Patient/966cc666-8f6e-4d6e-93a9-0c4b6345e966"
      },
      "period": {
        "start": "2026-11-09T11:00:00.000+00:00",
        "end": "2026-11-13T08:15:00.000+00:00"
      },
      "reasonReference": [ {
        "reference": "Condition/b5999589-4119-413e-92bf-43483e7cc9fa"
      }, {
        "reference": "Condition/d637e426-59b4-4037-9098-dad900f0edb7"
      } ]
    },
    "request": {
      "method": "PUT",
      "url": "Encounter/829a2b45-1a49-4397-aa4e-84c7bef6b461"
    }
  }, {
    "fullUrl": "https://madie.cms.gov/Encounter/4e5f3c77-1a9a-4f2d-8a2e-cd66e8a0f96d",
    "resource": {
      "resourceType": "Encounter",
      "id": "4e5f3c77-1a9a-4f2d-8a2e-cd66e8a0f96d",
      "meta": {
        "profile": [ "http://hl7.org/fhir/us/qicore/StructureDefinition/qicore-encounter" ]
      },
      "status": "finished",
      "class": {
        "system": "http://terminology.hl7.org/CodeSystem/v3-ActCode",
        "code": "IMP",
        "display": "inpatient encounter"
      },
      "type": [ {
        "coding": [ {
          "system": "http://snomed.info/sct",
          "code": "4525004"
        } ]
      } ],
      "subject": {
        "reference": "Patient/966cc666-8f6e-4d6e-93a9-0c4b6345e966"
      },
      "period": {
        "start": "2026-11-09T08:00:00.000+00:00",
        "end": "2026-11-09T10:15:00.000+00:00"
      }
    },
    "request": {
      "method": "PUT",
      "url": "Encounter/4e5f3c77-1a9a-4f2d-8a2e-cd66e8a0f96d"
    }
  }, {
    "fullUrl": "https://madie.cms.gov/Condition/d637e426-59b4-4037-9098-dad900f0edb7",
    "resource": {
      "resourceType": "Condition",
      "id": "d637e426-59b4-4037-9098-dad900f0edb7",
      "meta": {
        "profile": [ "http://hl7.org/fhir/us/qicore/StructureDefinition/qicore-condition-encounter-diagnosis" ]
      },
      "clinicalStatus": {
        "coding": [ {
          "system": "http://terminology.hl7.org/CodeSystem/condition-clinical",
          "code": "active"
        } ]
      },
      "verificationStatus": {
        "coding": [ {
          "system": "http://terminology.hl7.org/CodeSystem/condition-ver-status",
          "code": "confirmed"
        } ]
      },
      "category": [ {
        "coding": [ {
          "system": "http://terminology.hl7.org/CodeSystem/condition-category",
          "code": "encounter-diagnosis",
          "display": "Encounter Diagnosis"
        } ]
      } ],
      "code": {
        "coding": [ {
          "system": "http://hl7.org/fhir/sid/icd-10-cm",
          "code": "W19.XXXA"
        } ]
      },
      "subject": {
        "reference": "Patient/966cc666-8f6e-4d6e-93a9-0c4b6345e966"
      },
      "encounter": {
        "reference": "Encounter/829a2b45-1a49-4397-aa4e-84c7bef6b461"
      }
    },
    "request": {
      "method": "PUT",
      "url": "Condition/d637e426-59b4-4037-9098-dad900f0edb7"
    }
  }, {
    "fullUrl": "https://madie.cms.gov/Condition/b5999589-4119-413e-92bf-43483e7cc9fa",
    "resource": {
      "resourceType": "Condition",
      "id": "b5999589-4119-413e-92bf-43483e7cc9fa",
      "meta": {
        "profile": [ "http://hl7.org/fhir/us/qicore/StructureDefinition/qicore-condition-encounter-diagnosis" ]
      },
      "clinicalStatus": {
        "coding": [ {
          "system": "http://terminology.hl7.org/CodeSystem/condition-clinical",
          "code": "active"
        } ]
      },
      "verificationStatus": {
        "coding": [ {
          "system": "http://terminology.hl7.org/CodeSystem/condition-ver-status",
          "code": "confirmed"
        } ]
      },
      "category": [ {
        "coding": [ {
          "system": "http://terminology.hl7.org/CodeSystem/condition-category",
          "code": "encounter-diagnosis",
          "display": "Encounter Diagnosis"
        } ]
      } ],
      "code": {
        "coding": [ {
          "system": "http://hl7.org/fhir/sid/icd-10-cm",
          "code": "M80.00XA"
        } ]
      },
      "subject": {
        "reference": "Patient/966cc666-8f6e-4d6e-93a9-0c4b6345e966"
      },
      "encounter": {
        "reference": "Encounter/829a2b45-1a49-4397-aa4e-84c7bef6b461"
      }
    },
    "request": {
      "method": "PUT",
      "url": "Condition/b5999589-4119-413e-92bf-43483e7cc9fa"
    }
  }, {
    "fullUrl": "https://madie.cms.gov/Patient/966cc666-8f6e-4d6e-93a9-0c4b6345e966",
    "resource": {
      "resourceType": "Patient",
      "id": "966cc666-8f6e-4d6e-93a9-0c4b6345e966",
      "meta": {
        "profile": [ "http://hl7.org/fhir/us/qicore/StructureDefinition/qicore-patient" ]
      },
      "extension": [ {
        "url": "http://hl7.org/fhir/us/core/StructureDefinition/us-core-race",
        "extension": [ {
          "url": "ombCategory",
          "valueCoding": {
            "system": "urn:oid:2.16.840.1.113883.6.238",
            "code": "2028-9",
            "display": "Asian",
            "userSelected": true
          }
        }, {
          "url": "text",
          "valueString": "Asian"
        } ]
      }, {
        "url": "http://hl7.org/fhir/us/core/StructureDefinition/us-core-ethnicity",
        "extension": [ {
          "url": "ombCategory",
          "valueCoding": {
            "system": "urn:oid:2.16.840.1.113883.6.238",
            "code": "2186-5",
            "display": "Not Hispanic or Latino",
            "userSelected": true
          }
        }, {
          "url": "text",
          "valueString": "Not Hispanic or Latino"
        } ]
      } ],
      "identifier": [ {
        "type": {
          "coding": [ {
            "system": "http://terminology.hl7.org/CodeSystem/v2-0203",
            "code": "MR"
          } ]
        },
        "system": "https://bonnie-fhir.healthit.gov/",
        "value": "61152a3b98086b7a79cbd7c1"
      } ],
      "active": true,
      "name": [ {
        "use": "usual",
        "family": "NUMERPass",
        "given": [ "FallNullPOAInjuryNullPOA" ]
      } ],
      "gender": "male",
      "birthDate": "2000-09-09"
    },
    "request": {
      "method": "PUT",
      "url": "Patient/966cc666-8f6e-4d6e-93a9-0c4b6345e966"
    }
  }, {
    "fullUrl": "https://madie.cms.gov/Practitioner/883994e8-c6b9-4d06-a2d7-70f1d1d8fd9e",
    "resource": {
      "resourceType": "Practitioner",
      "id": "883994e8-c6b9-4d06-a2d7-70f1d1d8fd9e",
      "identifier": [ {
        "system": "http://www.cms.gov/identifiers/pracitioners",
        "value": "P12345"
      } ],
      "name": [ {
        "use": "official",
        "family": "Smith",
        "given": [ "John" ]
      } ],
      "qualification": [ {
        "identifier": [ {
          "system": "http://hl7.org/fhir/sid/us-npi",
          "value": "1234567890"
        } ],
        "code": {
          "coding": [ {
            "system": "http://terminology.hl7.org/CodeSystem/v2-0203",
            "code": "MD",
            "display": "Medical License number"
          } ]
        }
      } ]
    },
    "request": {
      "method": "PUT",
      "url": "Practitioner/883994e8-c6b9-4d06-a2d7-70f1d1d8fd9e"
    }
  }, {
    "fullUrl": "https://madie.cms.gov/Coverage/6e7a1938-9fda-4b39-8a81-5894c5710312",
    "resource": {
      "resourceType": "Coverage",
      "id": "6e7a1938-9fda-4b39-8a81-5894c5710312",
      "status": "active",
      "beneficiary": {
        "reference": "Patient/966cc666-8f6e-4d6e-93a9-0c4b6345e966"
      },
      "payor": [ {
        "reference": "Organization/7add93c5-a475-4f37-a698-d550ed2ad564"
      } ]
    },
    "request": {
      "method": "PUT",
      "url": "Coverage/6e7a1938-9fda-4b39-8a81-5894c5710312"
    }
  }, {
    "fullUrl": "https://madie.cms.gov/Organization/7add93c5-a475-4f37-a698-d550ed2ad564",
    "resource": {
      "resourceType": "Organization",
      "id": "7add93c5-a475-4f37-a698-d550ed2ad564",
      "identifier": [ {
        "system": "http://cms.gov/insurance-ids",
        "value": "AET12345"
      } ],
      "type": [ {
        "coding": [ {
          "system": "http://terminology.hl7.org/CodeSystem/organization-type",
          "code": "prov",
          "display": "Healthcare Provider"
        } ]
      } ],
      "name": "Aetna Insurance",
      "telecom": [ {
        "system": "phone",
        "value": "+1-800-123-4567"
      } ],
      "address": [ {
        "line": [ "123 Main Street" ],
        "city": "Cityville",
        "state": "CA",
        "postalCode": "12345",
        "country": "USA"
      } ]
    },
    "request": {
      "method": "PUT",
      "url": "Organization/7add93c5-a475-4f37-a698-d550ed2ad564"
    }
  }, {
    "fullUrl": "https://madie.cms.gov/MeasureReport/77d87500-ed11-4a4b-a1dc-894a90df3f78",
    "resource": {
      "resourceType": "MeasureReport",
      "id": "77d87500-ed11-4a4b-a1dc-894a90df3f78",
      "meta": {
        "profile": [ "http://hl7.org/fhir/us/cqfmeasures/StructureDefinition/test-case-cqfm" ]
      },
      "contained": [ {
        "resourceType": "Parameters",
        "id": "6afd2527-5597-4333-b357-15ce6ac888e5-parameters",
        "parameter": [ {
          "name": "subject",
          "valueString": "966cc666-8f6e-4d6e-93a9-0c4b6345e966"
        } ]
      } ],
      "extension": [ {
        "url": "http://hl7.org/fhir/StructureDefinition/cqf-inputParameters",
        "valueReference": {
          "reference": "#6afd2527-5597-4333-b357-15ce6ac888e5-parameters"
        }
      }, {
        "url": "http://hl7.org/fhir/us/cqfmeasures/StructureDefinition/cqfm-testCaseDescription",
        "valueMarkdown": "Encounter with Fall diag and injury diag both w/null POA flags. Unless POA flags explicitly indicate POA (e.g., N or U) then diagnosis is assumed to be not present on admission. \nMeets Numerator. "
      } ],
      "modifierExtension": [ {
        "url": "http://hl7.org/fhir/us/cqfmeasures/StructureDefinition/cqfm-isTestCase",
        "valueBoolean": true
      } ],
      "status": "complete",
      "type": "individual",
      "measure": "https://madie.cms.gov/Measure/CMS1017FHIRHHFI",
      "period": {
        "start": "2026-01-01",
        "end": "2026-12-31"
      },
      "group": [ {
        "id": "Group_1",
        "population": [ {
          "id": "InitialPopulation_1",
          "code": {
            "coding": [ {
              "system": "http://terminology.hl7.org/CodeSystem/measure-population",
              "code": "initial-population",
              "display": "Initial Population"
            } ]
          },
          "count": 1
        }, {
          "id": "Denominator_1",
          "code": {
            "coding": [ {
              "system": "http://terminology.hl7.org/CodeSystem/measure-population",
              "code": "denominator",
              "display": "Denominator"
            } ]
          },
          "count": 1
        }, {
          "id": "DenominatorExclusion_1",
          "code": {
            "coding": [ {
              "system": "http://terminology.hl7.org/CodeSystem/measure-population",
              "code": "denominator-exclusion",
              "display": "Denominator Exclusion"
            } ]
          },
          "count": 0
        }, {
          "id": "Numerator_1",
          "code": {
            "coding": [ {
              "system": "http://terminology.hl7.org/CodeSystem/measure-population",
              "code": "numerator",
              "display": "Numerator"
            } ]
          },
          "count": 1
        }, {
          "id": "NumeratorExclusion_1",
          "code": {
            "coding": [ {
              "system": "http://terminology.hl7.org/CodeSystem/measure-population",
              "code": "numerator-exclusion",
              "display": "Numerator Exclusion"
            } ]
          },
          "count": 0
        }, {
          "id": "MeasureObservation_1_1_1",
          "code": {
            "coding": [ {
              "system": "http://terminology.hl7.org/CodeSystem/measure-population",
              "code": "measure-observation",
              "display": "Measure Observation"
            } ]
          },
          "count": 4
        }, {
          "id": "MeasureObservation_1_2_1",
          "code": {
            "coding": [ {
              "system": "http://terminology.hl7.org/CodeSystem/measure-population",
              "code": "measure-observation",
              "display": "Measure Observation"
            } ]
          },
          "count": 1
        } ],
        "measureScore": {
          "value": 0.0
        }
      } ],
      "evaluatedResource": [ {
        "reference": "Claim/d7510bdd-6505-4fb5-b819-6f83d84353d9"
      }, {
        "reference": "Claim/55651511-a38a-4666-85be-70c7a5f009c1"
      }, {
        "reference": "Encounter/829a2b45-1a49-4397-aa4e-84c7bef6b461"
      }, {
        "reference": "Encounter/4e5f3c77-1a9a-4f2d-8a2e-cd66e8a0f96d"
      }, {
        "reference": "Condition/d637e426-59b4-4037-9098-dad900f0edb7"
      }, {
        "reference": "Condition/b5999589-4119-413e-92bf-43483e7cc9fa"
      }, {
        "reference": "Patient/966cc666-8f6e-4d6e-93a9-0c4b6345e966"
      }, {
        "reference": "Practitioner/883994e8-c6b9-4d06-a2d7-70f1d1d8fd9e"
      }, {
        "reference": "Coverage/6e7a1938-9fda-4b39-8a81-5894c5710312"
      }, {
        "reference": "Organization/7add93c5-a475-4f37-a698-d550ed2ad564"
      } ]
    },
    "request": {
      "method": "PUT",
      "url": "MeasureReport/77d87500-ed11-4a4b-a1dc-894a90df3f78"
    }
  } ]
}