{
  "resourceType": "Bundle",
  "id": "NUMERPass-TwoInjuriesOnePOAOneNPOAOneFallNPOA",
  "type": "transaction",
  "entry": [ {
    "fullUrl": "https://madie.cms.gov/Encounter/a5668858-a3d2-447b-9685-853e2e8cb171",
    "resource": {
      "resourceType": "Encounter",
      "id": "a5668858-a3d2-447b-9685-853e2e8cb171",
      "meta": {
        "profile": [ "http://hl7.org/fhir/us/qicore/StructureDefinition/qicore-encounter-condition-diagnosis" ]
      },
      "status": "finished",
      "class": {
        "system": "http://terminology.hl7.org/CodeSystem/v3-ActCode",
        "code": "IMP",
        "display": "inpatient encounter"
      },
      "type": [ {
        "coding": [ {
          "system": "http://snomed.info/sct",
          "code": "183452005"
        } ]
      } ],
      "subject": {
        "reference": "Patient/735a7993-89b8-4b21-87c2-d5f57df0f5a8"
      },
      "period": {
        "start": "2026-11-09T11:15:00.000+00:00",
        "end": "2026-11-13T08:15:00.000+00:00"
      },
      "diagnosis": [ {
        "extension": [ {
          "url": "http://hl7.org/fhir/us/qicore/StructureDefinition/qicore-encounter-diagnosisPresentOnAdmission",
          "valueCodeableConcept": {
            "coding": [ {
              "system": "https://www.cms.gov/Medicare/Medicare-Fee-for-Service-Payment/HospitalAcqCond/Coding",
              "code": "N"
            } ]
          }
        } ],
        "condition": {
          "reference": "Condition/TwoInjuriesOnePOAOneNPOAOneFallNPOA-1"
        }
      }, {
        "extension": [ {
          "url": "http://hl7.org/fhir/us/qicore/StructureDefinition/qicore-encounter-diagnosisPresentOnAdmission",
          "valueCodeableConcept": {
            "coding": [ {
              "system": "https://www.cms.gov/Medicare/Medicare-Fee-for-Service-Payment/HospitalAcqCond/Coding",
              "code": "Y"
            } ]
          }
        } ],
        "condition": {
          "reference": "Condition/NUMERPass-TwoInjuriesOnePOAOneNPOAOneFallNPOA-2"
        }
      }, {
        "extension": [ {
          "url": "http://hl7.org/fhir/us/qicore/StructureDefinition/qicore-encounter-diagnosisPresentOnAdmission",
          "valueCodeableConcept": {
            "coding": [ {
              "system": "https://www.cms.gov/Medicare/Medicare-Fee-for-Service-Payment/HospitalAcqCond/Coding",
              "code": "N"
            } ]
          }
        } ],
        "condition": {
          "reference": "Condition/NUMERPass-TwoInjuriesOnePOAOneNPOAOneFallNPOA-3"
        }
      } ]
    },
    "request": {
      "method": "PUT",
      "url": "Encounter/a5668858-a3d2-447b-9685-853e2e8cb171"
    }
  }, {
    "fullUrl": "https://madie.cms.gov/Encounter/fb98a9b2-c93c-4195-9904-de0d8a991aa5",
    "resource": {
      "resourceType": "Encounter",
      "id": "fb98a9b2-c93c-4195-9904-de0d8a991aa5",
      "meta": {
        "profile": [ "http://hl7.org/fhir/us/qicore/StructureDefinition/qicore-encounter-condition-diagnosis" ]
      },
      "status": "finished",
      "class": {
        "system": "http://terminology.hl7.org/CodeSystem/v3-ActCode",
        "code": "IMP",
        "display": "inpatient encounter"
      },
      "type": [ {
        "coding": [ {
          "system": "http://snomed.info/sct",
          "code": "4525004"
        } ]
      } ],
      "subject": {
        "reference": "Patient/735a7993-89b8-4b21-87c2-d5f57df0f5a8"
      },
      "period": {
        "start": "2026-11-09T08:00:00.000+00:00",
        "end": "2026-11-09T10:15:00.000+00:00"
      }
    },
    "request": {
      "method": "PUT",
      "url": "Encounter/fb98a9b2-c93c-4195-9904-de0d8a991aa5"
    }
  }, {
    "fullUrl": "https://madie.cms.gov/Condition/c9ff0914-b60c-4f11-8654-211cf172e035",
    "resource": {
      "resourceType": "Condition",
      "id": "c9ff0914-b60c-4f11-8654-211cf172e035",
      "meta": {
        "profile": [ "http://hl7.org/fhir/us/qicore/StructureDefinition/qicore-condition" ]
      },
      "clinicalStatus": {
        "coding": [ {
          "system": "http://terminology.hl7.org/CodeSystem/condition-clinical",
          "code": "active"
        } ]
      },
      "verificationStatus": {
        "coding": [ {
          "system": "http://terminology.hl7.org/CodeSystem/condition-ver-status",
          "code": "confirmed"
        } ]
      },
      "category": [ {
        "coding": [ {
          "system": "http://terminology.hl7.org/CodeSystem/condition-category",
          "code": "encounter-diagnosis",
          "display": "Encounter Diagnosis"
        } ]
      } ],
      "code": {
        "coding": [ {
          "system": "http://snomed.info/sct",
          "code": "242389003"
        } ]
      },
      "subject": {
        "reference": "Patient/735a7993-89b8-4b21-87c2-d5f57df0f5a8"
      },
      "encounter": {
        "reference": "Encounter/a5668858-a3d2-447b-9685-853e2e8cb171"
      }
    },
    "request": {
      "method": "PUT",
      "url": "Condition/c9ff0914-b60c-4f11-8654-211cf172e035"
    }
  }, {
    "fullUrl": "https://madie.cms.gov/Condition/f8bf1284-844e-4a2e-90c6-687aae17fd9d",
    "resource": {
      "resourceType": "Condition",
      "id": "f8bf1284-844e-4a2e-90c6-687aae17fd9d",
      "meta": {
        "profile": [ "http://hl7.org/fhir/us/qicore/StructureDefinition/qicore-condition" ]
      },
      "clinicalStatus": {
        "coding": [ {
          "system": "http://terminology.hl7.org/CodeSystem/condition-clinical",
          "code": "active"
        } ]
      },
      "verificationStatus": {
        "coding": [ {
          "system": "http://terminology.hl7.org/CodeSystem/condition-ver-status",
          "code": "confirmed"
        } ]
      },
      "category": [ {
        "coding": [ {
          "system": "http://terminology.hl7.org/CodeSystem/condition-category",
          "code": "encounter-diagnosis",
          "display": "Encounter Diagnosis"
        } ]
      } ],
      "code": {
        "coding": [ {
          "system": "http://hl7.org/fhir/sid/icd-10-cm",
          "code": "S01.302A"
        } ]
      },
      "subject": {
        "reference": "Patient/735a7993-89b8-4b21-87c2-d5f57df0f5a8"
      },
      "encounter": {
        "reference": "Encounter/a5668858-a3d2-447b-9685-853e2e8cb171"
      }
    },
    "request": {
      "method": "PUT",
      "url": "Condition/f8bf1284-844e-4a2e-90c6-687aae17fd9d"
    }
  }, {
    "fullUrl": "https://madie.cms.gov/Condition/40c20452-ed2b-42b0-88a5-b1abe3f5c672",
    "resource": {
      "resourceType": "Condition",
      "id": "40c20452-ed2b-42b0-88a5-b1abe3f5c672",
      "meta": {
        "profile": [ "http://hl7.org/fhir/us/qicore/StructureDefinition/qicore-condition" ]
      },
      "clinicalStatus": {
        "coding": [ {
          "system": "http://terminology.hl7.org/CodeSystem/condition-clinical",
          "code": "active"
        } ]
      },
      "verificationStatus": {
        "coding": [ {
          "system": "http://terminology.hl7.org/CodeSystem/condition-ver-status",
          "code": "confirmed"
        } ]
      },
      "category": [ {
        "coding": [ {
          "system": "http://terminology.hl7.org/CodeSystem/condition-category",
          "code": "encounter-diagnosis",
          "display": "Encounter Diagnosis"
        } ]
      } ],
      "code": {
        "coding": [ {
          "system": "http://hl7.org/fhir/sid/icd-10-cm",
          "code": "S02.841B"
        } ]
      },
      "subject": {
        "reference": "Patient/735a7993-89b8-4b21-87c2-d5f57df0f5a8"
      },
      "encounter": {
        "reference": "Encounter/a5668858-a3d2-447b-9685-853e2e8cb171"
      }
    },
    "request": {
      "method": "PUT",
      "url": "Condition/40c20452-ed2b-42b0-88a5-b1abe3f5c672"
    }
  }, {
    "fullUrl": "https://madie.cms.gov/Patient/735a7993-89b8-4b21-87c2-d5f57df0f5a8",
    "resource": {
      "resourceType": "Patient",
      "id": "735a7993-89b8-4b21-87c2-d5f57df0f5a8",
      "meta": {
        "profile": [ "http://hl7.org/fhir/us/qicore/StructureDefinition/qicore-patient" ]
      },
      "extension": [ {
        "url": "http://hl7.org/fhir/us/core/StructureDefinition/us-core-race",
        "extension": [ {
          "url": "ombCategory",
          "valueCoding": {
            "system": "urn:oid:2.16.840.1.113883.6.238",
            "code": "2028-9",
            "display": "Asian",
            "userSelected": true
          }
        }, {
          "url": "text",
          "valueString": "Asian"
        } ]
      }, {
        "url": "http://hl7.org/fhir/us/core/StructureDefinition/us-core-ethnicity",
        "extension": [ {
          "url": "ombCategory",
          "valueCoding": {
            "system": "urn:oid:2.16.840.1.113883.6.238",
            "code": "2186-5",
            "display": "Not Hispanic or Latino",
            "userSelected": true
          }
        }, {
          "url": "text",
          "valueString": "Not Hispanic or Latino"
        } ]
      } ],
      "identifier": [ {
        "type": {
          "coding": [ {
            "system": "http://terminology.hl7.org/CodeSystem/v2-0203",
            "code": "MR"
          } ]
        },
        "system": "https://bonnie-fhir.healthit.gov/",
        "value": "61152a3b98086b7a79cbd7c1"
      } ],
      "active": true,
      "name": [ {
        "use": "usual",
        "family": "NUMERPass",
        "given": [ "TwoInjuriesOnePOAOneNPOAOneFallNPOA" ]
      } ],
      "gender": "male",
      "birthDate": "2000-09-09"
    },
    "request": {
      "method": "PUT",
      "url": "Patient/735a7993-89b8-4b21-87c2-d5f57df0f5a8"
    }
  }, {
    "fullUrl": "https://madie.cms.gov/MeasureReport/67767070-d0af-49e4-974d-f843b310565d",
    "resource": {
      "resourceType": "MeasureReport",
      "id": "67767070-d0af-49e4-974d-f843b310565d",
      "meta": {
        "profile": [ "http://hl7.org/fhir/us/cqfmeasures/StructureDefinition/test-case-cqfm" ]
      },
      "contained": [ {
        "resourceType": "Parameters",
        "id": "d4b97a3e-a463-4500-9ea8-b29c2cae535e-parameters",
        "parameter": [ {
          "name": "subject",
          "valueString": "735a7993-89b8-4b21-87c2-d5f57df0f5a8"
        } ]
      } ],
      "extension": [ {
        "url": "http://hl7.org/fhir/StructureDefinition/cqf-inputParameters",
        "valueReference": {
          "reference": "#d4b97a3e-a463-4500-9ea8-b29c2cae535e-parameters"
        }
      }, {
        "url": "http://hl7.org/fhir/us/cqfmeasures/StructureDefinition/cqfm-testCaseDescription",
        "valueMarkdown": "Encounter diagnoses include a major injury NPOA and a moderate injury POA. Has one fall NPOA. Numerator Pass."
      } ],
      "modifierExtension": [ {
        "url": "http://hl7.org/fhir/us/cqfmeasures/StructureDefinition/cqfm-isTestCase",
        "valueBoolean": true
      } ],
      "status": "complete",
      "type": "individual",
      "measure": "https://madie.cms.gov/Measure/CMS1017FHIRHHFI",
      "period": {
        "start": "2026-01-01",
        "end": "2026-12-31"
      },
      "group": [ {
        "id": "Group_1",
        "population": [ {
          "id": "InitialPopulation_1",
          "code": {
            "coding": [ {
              "system": "http://terminology.hl7.org/CodeSystem/measure-population",
              "code": "initial-population",
              "display": "Initial Population"
            } ]
          },
          "count": 1
        }, {
          "id": "Denominator_1",
          "code": {
            "coding": [ {
              "system": "http://terminology.hl7.org/CodeSystem/measure-population",
              "code": "denominator",
              "display": "Denominator"
            } ]
          },
          "count": 1
        }, {
          "id": "DenominatorExclusion_1",
          "code": {
            "coding": [ {
              "system": "http://terminology.hl7.org/CodeSystem/measure-population",
              "code": "denominator-exclusion",
              "display": "Denominator Exclusion"
            } ]
          },
          "count": 0
        }, {
          "id": "Numerator_1",
          "code": {
            "coding": [ {
              "system": "http://terminology.hl7.org/CodeSystem/measure-population",
              "code": "numerator",
              "display": "Numerator"
            } ]
          },
          "count": 0
        }, {
          "id": "NumeratorExclusion_1",
          "code": {
            "coding": [ {
              "system": "http://terminology.hl7.org/CodeSystem/measure-population",
              "code": "numerator-exclusion",
              "display": "Numerator Exclusion"
            } ]
          },
          "count": 0
        }, {
          "id": "MeasureObservation_1_1_1",
          "code": {
            "coding": [ {
              "system": "http://terminology.hl7.org/CodeSystem/measure-population",
              "code": "measure-observation",
              "display": "Measure Observation"
            } ]
          },
          "count": 4
        } ],
        "measureScore": {
          "value": 0.0
        }
      } ],
      "evaluatedResource": [ {
        "reference": "Encounter/a5668858-a3d2-447b-9685-853e2e8cb171"
      }, {
        "reference": "Encounter/fb98a9b2-c93c-4195-9904-de0d8a991aa5"
      }, {
        "reference": "Condition/c9ff0914-b60c-4f11-8654-211cf172e035"
      }, {
        "reference": "Condition/f8bf1284-844e-4a2e-90c6-687aae17fd9d"
      }, {
        "reference": "Condition/40c20452-ed2b-42b0-88a5-b1abe3f5c672"
      }, {
        "reference": "Patient/735a7993-89b8-4b21-87c2-d5f57df0f5a8"
      } ]
    },
    "request": {
      "method": "PUT",
      "url": "MeasureReport/67767070-d0af-49e4-974d-f843b310565d"
    }
  } ]
}