{
  "resourceType": "Bundle",
  "id": "DENEXFail-MajorInjuryPOAandNPOA",
  "type": "transaction",
  "entry": [ {
    "fullUrl": "https://madie.cms.gov/Encounter/bf1fd8e9-fec1-436d-a94b-f6ac9a8c12c8",
    "resource": {
      "resourceType": "Encounter",
      "id": "bf1fd8e9-fec1-436d-a94b-f6ac9a8c12c8",
      "meta": {
        "profile": [ "http://hl7.org/fhir/us/qicore/StructureDefinition/qicore-encounter" ]
      },
      "status": "finished",
      "class": {
        "system": "http://terminology.hl7.org/CodeSystem/v3-ActCode",
        "code": "IMP",
        "display": "inpatient encounter"
      },
      "type": [ {
        "coding": [ {
          "system": "http://snomed.info/sct",
          "code": "183452005"
        } ]
      } ],
      "subject": {
        "reference": "Patient/972573e8-bd51-4b77-a954-39babec1a055"
      },
      "period": {
        "start": "2026-11-09T11:00:00.000+00:00",
        "end": "2026-11-12T08:15:00.000+00:00"
      },
      "diagnosis": [ {
        "condition": {
          "reference": "Condition/fba5db75-5ac4-4069-a61e-47b4635c805d"
        }
      }, {
        "condition": {
          "reference": "Condition/8d7359f2-739d-475c-9ca7-5f6aa0387552"
        }
      } ]
    },
    "request": {
      "method": "PUT",
      "url": "Encounter/bf1fd8e9-fec1-436d-a94b-f6ac9a8c12c8"
    }
  }, {
    "fullUrl": "https://madie.cms.gov/Encounter/171e97fa-2aba-410c-865f-0d7408b64caa",
    "resource": {
      "resourceType": "Encounter",
      "id": "171e97fa-2aba-410c-865f-0d7408b64caa",
      "meta": {
        "profile": [ "http://hl7.org/fhir/us/qicore/StructureDefinition/qicore-encounter" ]
      },
      "status": "finished",
      "class": {
        "system": "http://terminology.hl7.org/CodeSystem/v3-ActCode",
        "code": "IMP",
        "display": "inpatient encounter"
      },
      "type": [ {
        "coding": [ {
          "system": "http://snomed.info/sct",
          "code": "4525004"
        } ]
      } ],
      "subject": {
        "reference": "Patient/972573e8-bd51-4b77-a954-39babec1a055"
      },
      "period": {
        "start": "2026-11-09T08:00:00.000+00:00",
        "end": "2026-11-09T10:15:00.000+00:00"
      }
    },
    "request": {
      "method": "PUT",
      "url": "Encounter/171e97fa-2aba-410c-865f-0d7408b64caa"
    }
  }, {
    "fullUrl": "https://madie.cms.gov/Condition/8d7359f2-739d-475c-9ca7-5f6aa0387552",
    "resource": {
      "resourceType": "Condition",
      "id": "8d7359f2-739d-475c-9ca7-5f6aa0387552",
      "meta": {
        "profile": [ "http://hl7.org/fhir/us/qicore/StructureDefinition/qicore-condition-encounter-diagnosis" ]
      },
      "clinicalStatus": {
        "coding": [ {
          "system": "http://terminology.hl7.org/CodeSystem/condition-clinical",
          "code": "active"
        } ]
      },
      "verificationStatus": {
        "coding": [ {
          "system": "http://terminology.hl7.org/CodeSystem/condition-ver-status",
          "code": "confirmed"
        } ]
      },
      "category": [ {
        "coding": [ {
          "system": "http://terminology.hl7.org/CodeSystem/condition-category",
          "code": "encounter-diagnosis",
          "display": "Encounter Diagnosis"
        } ]
      } ],
      "code": {
        "coding": [ {
          "system": "http://hl7.org/fhir/sid/icd-10-cm",
          "code": "M80.00XA"
        } ]
      },
      "subject": {
        "reference": "Patient/972573e8-bd51-4b77-a954-39babec1a055"
      },
      "encounter": {
        "reference": "Encounter/bf1fd8e9-fec1-436d-a94b-f6ac9a8c12c8"
      }
    },
    "request": {
      "method": "PUT",
      "url": "Condition/8d7359f2-739d-475c-9ca7-5f6aa0387552"
    }
  }, {
    "fullUrl": "https://madie.cms.gov/Condition/fba5db75-5ac4-4069-a61e-47b4635c805d",
    "resource": {
      "resourceType": "Condition",
      "id": "fba5db75-5ac4-4069-a61e-47b4635c805d",
      "meta": {
        "profile": [ "http://hl7.org/fhir/us/qicore/StructureDefinition/qicore-condition-encounter-diagnosis" ]
      },
      "clinicalStatus": {
        "coding": [ {
          "system": "http://terminology.hl7.org/CodeSystem/condition-clinical",
          "code": "active"
        } ]
      },
      "verificationStatus": {
        "coding": [ {
          "system": "http://terminology.hl7.org/CodeSystem/condition-ver-status",
          "code": "confirmed"
        } ]
      },
      "category": [ {
        "coding": [ {
          "system": "http://terminology.hl7.org/CodeSystem/condition-category",
          "code": "encounter-diagnosis",
          "display": "Encounter Diagnosis"
        } ]
      } ],
      "code": {
        "coding": [ {
          "system": "http://hl7.org/fhir/sid/icd-10-cm",
          "code": "M80.00XA"
        } ]
      },
      "subject": {
        "reference": "Patient/972573e8-bd51-4b77-a954-39babec1a055"
      },
      "encounter": {
        "reference": "Encounter/bf1fd8e9-fec1-436d-a94b-f6ac9a8c12c8"
      }
    },
    "request": {
      "method": "PUT",
      "url": "Condition/fba5db75-5ac4-4069-a61e-47b4635c805d"
    }
  }, {
    "fullUrl": "https://madie.cms.gov/Patient/972573e8-bd51-4b77-a954-39babec1a055",
    "resource": {
      "resourceType": "Patient",
      "id": "972573e8-bd51-4b77-a954-39babec1a055",
      "meta": {
        "profile": [ "http://hl7.org/fhir/us/qicore/StructureDefinition/qicore-patient" ]
      },
      "extension": [ {
        "url": "http://hl7.org/fhir/us/core/StructureDefinition/us-core-race",
        "extension": [ {
          "url": "ombCategory",
          "valueCoding": {
            "system": "urn:oid:2.16.840.1.113883.6.238",
            "code": "1002-5",
            "display": "American Indian or Alaska Native",
            "userSelected": true
          }
        }, {
          "url": "text",
          "valueString": "American Indian or Alaska Native"
        } ]
      }, {
        "url": "http://hl7.org/fhir/us/core/StructureDefinition/us-core-ethnicity",
        "extension": [ {
          "url": "ombCategory",
          "valueCoding": {
            "system": "urn:oid:2.16.840.1.113883.6.238",
            "code": "2135-2",
            "display": "Hispanic or Latino",
            "userSelected": true
          }
        }, {
          "url": "text",
          "valueString": "Hispanic or Latino"
        } ]
      } ],
      "identifier": [ {
        "type": {
          "coding": [ {
            "system": "http://terminology.hl7.org/CodeSystem/v2-0203",
            "code": "MR"
          } ]
        },
        "system": "https://bonnie-fhir.healthit.gov/",
        "value": "61152a3b98086b7a79cbd7c1"
      } ],
      "active": true,
      "name": [ {
        "use": "usual",
        "family": "DENEXFail",
        "given": [ "MajorInjuryPOAandNPOA" ]
      } ],
      "gender": "female",
      "birthDate": "1964-12-11"
    },
    "request": {
      "method": "PUT",
      "url": "Patient/972573e8-bd51-4b77-a954-39babec1a055"
    }
  }, {
    "fullUrl": "https://madie.cms.gov/Claim/6089480c-a764-4407-bcd2-8357b0ea7f30",
    "resource": {
      "resourceType": "Claim",
      "id": "6089480c-a764-4407-bcd2-8357b0ea7f30",
      "meta": {
        "profile": [ "http://hl7.org/fhir/us/qicore/StructureDefinition/qicore-claim" ]
      },
      "status": "active",
      "type": {
        "coding": [ {
          "system": "http://terminology.hl7.org/CodeSystem/claim-type",
          "code": "professional",
          "display": "Professional"
        } ]
      },
      "use": "claim",
      "patient": {
        "reference": "Patient/972573e8-bd51-4b77-a954-39babec1a055"
      },
      "created": "2026-11-10",
      "provider": {
        "reference": "Practitioner/e4540432-e357-461a-b501-55317272ad2e"
      },
      "priority": {
        "coding": [ {
          "system": "http://terminology.hl7.org/CodeSystem/processpriority",
          "code": "normal"
        } ]
      },
      "diagnosis": [ {
        "sequence": 1,
        "diagnosisCodeableConcept": {
          "coding": [ {
            "system": "http://hl7.org/fhir/sid/icd-10-cm",
            "code": "M80.00XA"
          } ]
        },
        "onAdmission": {
          "coding": [ {
            "system": "https://www.cms.gov/Medicare/Medicare-Fee-for-Service-Payment/HospitalAcqCond/Coding",
            "code": "N"
          } ]
        }
      } ],
      "insurance": [ {
        "sequence": 1,
        "focal": true,
        "coverage": {
          "reference": "Coverage/acacc025-9419-4ac1-ab67-e4167667a4fa"
        }
      } ],
      "item": [ {
        "sequence": 1,
        "diagnosisSequence": [ 1, 2 ],
        "productOrService": {
          "coding": [ {
            "system": "http://terminology.hl7.org/CodeSystem/ex-USCLS",
            "code": "1101"
          } ]
        },
        "encounter": [ {
          "reference": "Encounter/bf1fd8e9-fec1-436d-a94b-f6ac9a8c12c8"
        } ]
      } ]
    },
    "request": {
      "method": "PUT",
      "url": "Claim/6089480c-a764-4407-bcd2-8357b0ea7f30"
    }
  }, {
    "fullUrl": "https://madie.cms.gov/Claim/6ea24e1f-6584-47a7-a599-80bf2c00ff7c",
    "resource": {
      "resourceType": "Claim",
      "id": "6ea24e1f-6584-47a7-a599-80bf2c00ff7c",
      "meta": {
        "profile": [ "http://hl7.org/fhir/us/qicore/StructureDefinition/qicore-claim" ]
      },
      "status": "active",
      "type": {
        "coding": [ {
          "system": "http://terminology.hl7.org/CodeSystem/claim-type",
          "code": "professional",
          "display": "Professional"
        } ]
      },
      "use": "claim",
      "patient": {
        "reference": "Patient/972573e8-bd51-4b77-a954-39babec1a055"
      },
      "created": "2026-11-10",
      "provider": {
        "reference": "Practitioner/e4540432-e357-461a-b501-55317272ad2e"
      },
      "priority": {
        "coding": [ {
          "system": "http://terminology.hl7.org/CodeSystem/processpriority",
          "code": "normal"
        } ]
      },
      "diagnosis": [ {
        "sequence": 2,
        "diagnosisCodeableConcept": {
          "coding": [ {
            "system": "http://hl7.org/fhir/sid/icd-10-cm",
            "code": "M80.00XA"
          } ]
        },
        "onAdmission": {
          "coding": [ {
            "system": "https://www.cms.gov/Medicare/Medicare-Fee-for-Service-Payment/HospitalAcqCond/Coding",
            "code": "W"
          } ]
        }
      } ],
      "insurance": [ {
        "sequence": 1,
        "focal": true,
        "coverage": {
          "reference": "Coverage/acacc025-9419-4ac1-ab67-e4167667a4fa"
        }
      } ],
      "item": [ {
        "sequence": 2,
        "diagnosisSequence": [ 1, 2 ],
        "productOrService": {
          "coding": [ {
            "system": "http://terminology.hl7.org/CodeSystem/ex-USCLS",
            "code": "1101"
          } ]
        },
        "encounter": [ {
          "reference": "Encounter/bf1fd8e9-fec1-436d-a94b-f6ac9a8c12c8"
        } ]
      } ]
    },
    "request": {
      "method": "PUT",
      "url": "Claim/6ea24e1f-6584-47a7-a599-80bf2c00ff7c"
    }
  }, {
    "fullUrl": "https://madie.cms.gov/AdverseEvent/1dc0d18a-cf89-4ac5-b65b-5e45cb11daaa",
    "resource": {
      "resourceType": "AdverseEvent",
      "id": "1dc0d18a-cf89-4ac5-b65b-5e45cb11daaa",
      "meta": {
        "profile": [ "http://hl7.org/fhir/us/qicore/StructureDefinition/qicore-adverseevent" ]
      },
      "actuality": "actual",
      "event": {
        "coding": [ {
          "system": "http://hl7.org/fhir/sid/icd-10-cm",
          "code": "W01.0XXA"
        } ]
      },
      "subject": {
        "reference": "Patient/972573e8-bd51-4b77-a954-39babec1a055"
      },
      "encounter": {
        "reference": "Encounter/bf1fd8e9-fec1-436d-a94b-f6ac9a8c12c8"
      },
      "date": "2026-11-10T08:00:00.000+00:00"
    },
    "request": {
      "method": "PUT",
      "url": "AdverseEvent/1dc0d18a-cf89-4ac5-b65b-5e45cb11daaa"
    }
  }, {
    "fullUrl": "https://madie.cms.gov/Practitioner/e4540432-e357-461a-b501-55317272ad2e",
    "resource": {
      "resourceType": "Practitioner",
      "id": "e4540432-e357-461a-b501-55317272ad2e",
      "meta": {
        "profile": [ "http://hl7.org/fhir/us/qicore/StructureDefinition/qicore-practitioner" ]
      },
      "identifier": [ {
        "system": "http://www.cms.gov/identifiers/pracitioners",
        "value": "P12345"
      } ],
      "name": [ {
        "use": "official",
        "family": "Smith",
        "given": [ "John" ]
      } ],
      "qualification": [ {
        "identifier": [ {
          "system": "http://hl7.org/fhir/sid/us-npi",
          "value": "1234567890"
        } ],
        "code": {
          "coding": [ {
            "system": "http://terminology.hl7.org/CodeSystem/v2-0203",
            "code": "MD",
            "display": "Medical License number"
          } ]
        }
      } ]
    },
    "request": {
      "method": "PUT",
      "url": "Practitioner/e4540432-e357-461a-b501-55317272ad2e"
    }
  }, {
    "fullUrl": "https://madie.cms.gov/Coverage/acacc025-9419-4ac1-ab67-e4167667a4fa",
    "resource": {
      "resourceType": "Coverage",
      "id": "acacc025-9419-4ac1-ab67-e4167667a4fa",
      "meta": {
        "profile": [ "http://hl7.org/fhir/us/qicore/StructureDefinition/qicore-coverage" ]
      },
      "identifier": [ {
        "use": "official",
        "type": {
          "coding": [ {
            "system": "http://terminology.hl7.org/CodeSystem/v2-0203",
            "code": "MB"
          } ]
        },
        "system": "http://insuranceNumber.org/",
        "value": "123456789"
      } ],
      "status": "active",
      "beneficiary": {
        "reference": "Patient/972573e8-bd51-4b77-a954-39babec1a055"
      },
      "relationship": {
        "coding": [ {
          "system": "http://terminology.hl7.org/CodeSystem/subscriber-relationship",
          "code": "self",
          "display": "Self"
        } ]
      },
      "payor": [ {
        "reference": "Organization/821ae256-9f48-4894-b134-9599c35843a8"
      } ]
    },
    "request": {
      "method": "PUT",
      "url": "Coverage/acacc025-9419-4ac1-ab67-e4167667a4fa"
    }
  }, {
    "fullUrl": "https://madie.cms.gov/Organization/821ae256-9f48-4894-b134-9599c35843a8",
    "resource": {
      "resourceType": "Organization",
      "id": "821ae256-9f48-4894-b134-9599c35843a8",
      "meta": {
        "profile": [ "http://hl7.org/fhir/us/qicore/StructureDefinition/qicore-organization" ]
      },
      "identifier": [ {
        "system": "http://cms.gov/insurance-ids",
        "value": "AET12345"
      } ],
      "active": true,
      "type": [ {
        "coding": [ {
          "system": "http://terminology.hl7.org/CodeSystem/organization-type",
          "code": "prov",
          "display": "Healthcare Provider"
        } ]
      } ],
      "name": "Aetna Insurance",
      "telecom": [ {
        "system": "phone",
        "value": "+1-800-123-4567"
      } ],
      "address": [ {
        "line": [ "123 Main Street" ],
        "city": "Cityville",
        "state": "CA",
        "postalCode": "12345",
        "country": "USA"
      } ]
    },
    "request": {
      "method": "PUT",
      "url": "Organization/821ae256-9f48-4894-b134-9599c35843a8"
    }
  }, {
    "fullUrl": "https://madie.cms.gov/MeasureReport/5fae8c86-f90c-4b39-9444-4d3dfa2c69c4",
    "resource": {
      "resourceType": "MeasureReport",
      "id": "5fae8c86-f90c-4b39-9444-4d3dfa2c69c4",
      "meta": {
        "profile": [ "http://hl7.org/fhir/us/cqfmeasures/StructureDefinition/test-case-cqfm" ]
      },
      "contained": [ {
        "resourceType": "Parameters",
        "id": "e3cdfba4-31cf-4426-bac0-f36a9aa4a84f-parameters",
        "parameter": [ {
          "name": "subject",
          "valueString": "972573e8-bd51-4b77-a954-39babec1a055"
        } ]
      } ],
      "extension": [ {
        "url": "http://hl7.org/fhir/StructureDefinition/cqf-inputParameters",
        "valueReference": {
          "reference": "#e3cdfba4-31cf-4426-bac0-f36a9aa4a84f-parameters"
        }
      }, {
        "url": "http://hl7.org/fhir/us/cqfmeasures/StructureDefinition/cqfm-testCaseDescription",
        "valueMarkdown": "Encounter with a major injury POA. Also has another maj injury NPOA. Had adverse event fall during encounter. Major Inj POA doesn't cause exclusion since there was another major injury NPOA with a fall to meet denom and numerator. DENEX fails."
      } ],
      "modifierExtension": [ {
        "url": "http://hl7.org/fhir/us/cqfmeasures/StructureDefinition/cqfm-isTestCase",
        "valueBoolean": true
      } ],
      "status": "complete",
      "type": "individual",
      "measure": "https://madie.cms.gov/Measure/CMS1017FHIRHHFI",
      "period": {
        "start": "2026-01-01",
        "end": "2026-12-31"
      },
      "group": [ {
        "id": "Group_1",
        "population": [ {
          "id": "InitialPopulation_1",
          "code": {
            "coding": [ {
              "system": "http://terminology.hl7.org/CodeSystem/measure-population",
              "code": "initial-population",
              "display": "Initial Population"
            } ]
          },
          "count": 1
        }, {
          "id": "Denominator_1",
          "code": {
            "coding": [ {
              "system": "http://terminology.hl7.org/CodeSystem/measure-population",
              "code": "denominator",
              "display": "Denominator"
            } ]
          },
          "count": 1
        }, {
          "id": "DenominatorExclusion_1",
          "code": {
            "coding": [ {
              "system": "http://terminology.hl7.org/CodeSystem/measure-population",
              "code": "denominator-exclusion",
              "display": "Denominator Exclusion"
            } ]
          },
          "count": 0
        }, {
          "id": "Numerator_1",
          "code": {
            "coding": [ {
              "system": "http://terminology.hl7.org/CodeSystem/measure-population",
              "code": "numerator",
              "display": "Numerator"
            } ]
          },
          "count": 1
        }, {
          "id": "NumeratorExclusion_1",
          "code": {
            "coding": [ {
              "system": "http://terminology.hl7.org/CodeSystem/measure-population",
              "code": "numerator-exclusion",
              "display": "Numerator Exclusion"
            } ]
          },
          "count": 0
        }, {
          "id": "MeasureObservation_1_1_1",
          "code": {
            "coding": [ {
              "system": "http://terminology.hl7.org/CodeSystem/measure-population",
              "code": "measure-observation",
              "display": "Measure Observation"
            } ]
          },
          "count": 3
        }, {
          "id": "MeasureObservation_1_2_1",
          "code": {
            "coding": [ {
              "system": "http://terminology.hl7.org/CodeSystem/measure-population",
              "code": "measure-observation",
              "display": "Measure Observation"
            } ]
          },
          "count": 1
        } ],
        "measureScore": {
          "value": 0.0
        }
      } ],
      "evaluatedResource": [ {
        "reference": "Encounter/bf1fd8e9-fec1-436d-a94b-f6ac9a8c12c8"
      }, {
        "reference": "Encounter/171e97fa-2aba-410c-865f-0d7408b64caa"
      }, {
        "reference": "Condition/8d7359f2-739d-475c-9ca7-5f6aa0387552"
      }, {
        "reference": "Condition/fba5db75-5ac4-4069-a61e-47b4635c805d"
      }, {
        "reference": "Patient/972573e8-bd51-4b77-a954-39babec1a055"
      }, {
        "reference": "Claim/6089480c-a764-4407-bcd2-8357b0ea7f30"
      }, {
        "reference": "Claim/6ea24e1f-6584-47a7-a599-80bf2c00ff7c"
      }, {
        "reference": "AdverseEvent/1dc0d18a-cf89-4ac5-b65b-5e45cb11daaa"
      }, {
        "reference": "Practitioner/e4540432-e357-461a-b501-55317272ad2e"
      }, {
        "reference": "Coverage/acacc025-9419-4ac1-ab67-e4167667a4fa"
      }, {
        "reference": "Organization/821ae256-9f48-4894-b134-9599c35843a8"
      } ]
    },
    "request": {
      "method": "PUT",
      "url": "MeasureReport/5fae8c86-f90c-4b39-9444-4d3dfa2c69c4"
    }
  } ]
}