{
  "resourceType": "Bundle",
  "id": "tests-NumerPass-RVwithAnticoagulantOrderAtAdmission-bundle",
  "type": "transaction",
  "entry": [ {
    "fullUrl": "https://madie.cms.gov/Encounter/0b2e10ed-30cd-49d7-a2ed-64d7c0f87b39",
    "resource": {
      "resourceType": "Encounter",
      "id": "0b2e10ed-30cd-49d7-a2ed-64d7c0f87b39",
      "meta": {
        "profile": [ "http://hl7.org/fhir/us/qicore/StructureDefinition/qicore-encounter" ]
      },
      "status": "finished",
      "class": {
        "system": "http://terminology.hl7.org/CodeSystem/v3-ActCode",
        "code": "IMP",
        "display": "inpatient encounter"
      },
      "type": [ {
        "coding": [ {
          "system": "http://snomed.info/sct",
          "code": "183452005"
        } ]
      } ],
      "subject": {
        "reference": "Patient/fbbd3f4a-3e8e-40b9-ac83-0e80b2c129ec"
      },
      "period": {
        "start": "2026-10-19T08:30:00.000+00:00",
        "end": "2026-10-21T08:15:00.000+00:00"
      },
      "reasonCode": [ {
        "coding": [ {
          "system": "http://snomed.info/sct",
          "code": "14047009"
        } ]
      }, {
        "coding": [ {
          "system": "http://snomed.info/sct",
          "code": "64859006"
        } ]
      } ]
    },
    "request": {
      "method": "PUT",
      "url": "Encounter/0b2e10ed-30cd-49d7-a2ed-64d7c0f87b39"
    }
  }, {
    "fullUrl": "https://madie.cms.gov/Encounter/05ea2e76-63ea-4887-8a65-55f537328f47",
    "resource": {
      "resourceType": "Encounter",
      "id": "05ea2e76-63ea-4887-8a65-55f537328f47",
      "meta": {
        "profile": [ "http://hl7.org/fhir/us/qicore/StructureDefinition/qicore-encounter" ]
      },
      "status": "finished",
      "class": {
        "system": "http://terminology.hl7.org/CodeSystem/v3-ActCode",
        "code": "EMER",
        "display": "emergency encounter"
      },
      "type": [ {
        "coding": [ {
          "system": "http://snomed.info/sct",
          "code": "4525004"
        } ]
      } ],
      "subject": {
        "reference": "Patient/fbbd3f4a-3e8e-40b9-ac83-0e80b2c129ec"
      },
      "period": {
        "start": "2026-10-18T09:15:00.000+00:00",
        "end": "2026-10-19T08:15:00.000+00:00"
      }
    },
    "request": {
      "method": "PUT",
      "url": "Encounter/05ea2e76-63ea-4887-8a65-55f537328f47"
    }
  }, {
    "fullUrl": "https://madie.cms.gov/Patient/fbbd3f4a-3e8e-40b9-ac83-0e80b2c129ec",
    "resource": {
      "resourceType": "Patient",
      "id": "fbbd3f4a-3e8e-40b9-ac83-0e80b2c129ec",
      "meta": {
        "profile": [ "http://hl7.org/fhir/us/qicore/StructureDefinition/qicore-patient" ]
      },
      "extension": [ {
        "url": "http://hl7.org/fhir/us/core/StructureDefinition/us-core-race",
        "extension": [ {
          "url": "ombCategory",
          "valueCoding": {
            "system": "urn:oid:2.16.840.1.113883.6.238",
            "code": "2106-3",
            "display": "White"
          }
        }, {
          "url": "text",
          "valueString": "White"
        } ]
      }, {
        "url": "http://hl7.org/fhir/us/core/StructureDefinition/us-core-ethnicity",
        "extension": [ {
          "url": "ombCategory",
          "valueCoding": {
            "system": "urn:oid:2.16.840.1.113883.6.238",
            "code": "2135-2",
            "display": "Hispanic or Latino"
          }
        }, {
          "url": "text",
          "valueString": "Hispanic or Latino"
        } ]
      }, {
        "url": "http://hl7.org/fhir/us/core/StructureDefinition/us-core-sex",
        "valueCode": "248153007"
      } ],
      "identifier": [ {
        "system": "http://hospital.smarthealthit.org",
        "value": "999999999"
      } ],
      "name": [ {
        "family": "Example",
        "given": [ "Patient" ]
      } ],
      "gender": "female",
      "birthDate": "1956-01-01"
    },
    "request": {
      "method": "PUT",
      "url": "Patient/fbbd3f4a-3e8e-40b9-ac83-0e80b2c129ec"
    }
  }, {
    "fullUrl": "https://madie.cms.gov/Claim/f37879b2-b839-479a-8e81-2b599f5712bb",
    "resource": {
      "resourceType": "Claim",
      "id": "f37879b2-b839-479a-8e81-2b599f5712bb",
      "meta": {
        "profile": [ "http://hl7.org/fhir/us/qicore/StructureDefinition/qicore-claim" ]
      },
      "status": "active",
      "type": {
        "coding": [ {
          "system": "http://terminology.hl7.org/CodeSystem/claim-type",
          "code": "institutional",
          "display": "Institutional"
        } ]
      },
      "use": "claim",
      "patient": {
        "reference": "Patient/fbbd3f4a-3e8e-40b9-ac83-0e80b2c129ec"
      },
      "created": "2026-10-22",
      "provider": {
        "reference": "Practitioner/practitioner-1"
      },
      "priority": {
        "coding": [ {
          "system": "http://terminology.hl7.org/CodeSystem/processpriority",
          "code": "normal"
        } ]
      },
      "diagnosis": [ {
        "sequence": 1,
        "diagnosisCodeableConcept": {
          "coding": [ {
            "system": "http://snomed.info/sct",
            "code": "14047009"
          } ]
        }
      } ],
      "insurance": [ {
        "sequence": 1,
        "focal": true,
        "coverage": {
          "reference": "Coverage/coverage-1"
        }
      } ],
      "item": [ {
        "sequence": 1,
        "diagnosisSequence": [ 1, 2 ],
        "productOrService": {
          "coding": [ {
            "system": "http://terminology.hl7.org/CodeSystem/ex-USCLS",
            "code": "1101"
          } ]
        },
        "encounter": [ {
          "reference": "Encounter/0b2e10ed-30cd-49d7-a2ed-64d7c0f87b39"
        } ]
      } ]
    },
    "request": {
      "method": "PUT",
      "url": "Claim/f37879b2-b839-479a-8e81-2b599f5712bb"
    }
  }, {
    "fullUrl": "https://madie.cms.gov/Claim/094061cf-fdd5-4c6a-a4a4-e570129c9081",
    "resource": {
      "resourceType": "Claim",
      "id": "094061cf-fdd5-4c6a-a4a4-e570129c9081",
      "meta": {
        "profile": [ "http://hl7.org/fhir/us/qicore/StructureDefinition/qicore-claim" ]
      },
      "status": "active",
      "type": {
        "coding": [ {
          "system": "http://terminology.hl7.org/CodeSystem/claim-type",
          "code": "institutional",
          "display": "Institutional"
        } ]
      },
      "use": "claim",
      "patient": {
        "reference": "Patient/fbbd3f4a-3e8e-40b9-ac83-0e80b2c129ec"
      },
      "created": "2026-11-01",
      "provider": {
        "reference": "Practitioner/practitioner-1"
      },
      "priority": {
        "coding": [ {
          "system": "http://terminology.hl7.org/CodeSystem/processpriority",
          "code": "normal"
        } ]
      },
      "diagnosis": [ {
        "sequence": 1,
        "diagnosisCodeableConcept": {
          "coding": [ {
            "system": "http://hl7.org/fhir/sid/icd-10-cm",
            "code": "M80.00XA",
            "display": "Age-related osteoporosis with current pathological fracture, unspecified site, initial encounter for fracture"
          } ]
        }
      } ],
      "insurance": [ {
        "sequence": 1,
        "focal": true,
        "coverage": {
          "reference": "Coverage/coverage-1"
        }
      } ],
      "item": [ {
        "sequence": 1,
        "diagnosisSequence": [ 1, 2 ],
        "productOrService": {
          "coding": [ {
            "system": "http://terminology.hl7.org/CodeSystem/ex-USCLS",
            "code": "1101"
          } ]
        },
        "encounter": [ {
          "reference": "Encounter/0b2e10ed-30cd-49d7-a2ed-64d7c0f87b39"
        } ]
      } ]
    },
    "request": {
      "method": "PUT",
      "url": "Claim/094061cf-fdd5-4c6a-a4a4-e570129c9081"
    }
  }, {
    "fullUrl": "https://madie.cms.gov/MedicationRequest/f825570d-fe3c-46e7-886e-8f7cb745421b",
    "resource": {
      "resourceType": "MedicationRequest",
      "id": "f825570d-fe3c-46e7-886e-8f7cb745421b",
      "meta": {
        "profile": [ "http://hl7.org/fhir/us/qicore/StructureDefinition/qicore-medicationrequest" ]
      },
      "status": "active",
      "intent": "order",
      "category": [ {
        "coding": [ {
          "system": "http://terminology.hl7.org/CodeSystem/medicationrequest-category",
          "code": "community",
          "display": "Community"
        } ]
      } ],
      "reportedReference": {
        "reference": "Patient/fbbd3f4a-3e8e-40b9-ac83-0e80b2c129ec"
      },
      "medicationCodeableConcept": {
        "coding": [ {
          "system": "http://www.nlm.nih.gov/research/umls/rxnorm",
          "code": "1364435",
          "display": "apixaban 2.5 mg oral tablet"
        } ]
      },
      "subject": {
        "reference": "Patient/fbbd3f4a-3e8e-40b9-ac83-0e80b2c129ec"
      },
      "authoredOn": "2026-10-15",
      "requester": {
        "reference": "Practitioner/be229197-cc38-4c28-a9e1-a4b2d2614329"
      },
      "dispenseRequest": {
        "quantity": {
          "value": 14,
          "unit": "tablet",
          "system": "http://unitsofmeasure.org",
          "code": "{tablet}"
        },
        "expectedSupplyDuration": {
          "value": 14,
          "unit": "days",
          "system": "http://unitsofmeasure.org",
          "code": "d"
        }
      }
    },
    "request": {
      "method": "PUT",
      "url": "MedicationRequest/f825570d-fe3c-46e7-886e-8f7cb745421b"
    }
  }, {
    "fullUrl": "https://madie.cms.gov/Practitioner/be229197-cc38-4c28-a9e1-a4b2d2614329",
    "resource": {
      "resourceType": "Practitioner",
      "id": "be229197-cc38-4c28-a9e1-a4b2d2614329",
      "identifier": [ {
        "system": "http://www.cms.gov/identifiers/pracitioners",
        "value": "P12345"
      } ],
      "name": [ {
        "use": "official",
        "family": "Smith",
        "given": [ "John" ]
      } ],
      "qualification": [ {
        "identifier": [ {
          "system": "http://hl7.org/fhir/sid/us-npi",
          "value": "1234567890"
        } ],
        "code": {
          "coding": [ {
            "system": "http://terminology.hl7.org/CodeSystem/v2-0203",
            "code": "MD",
            "display": "Medical License number"
          } ]
        }
      } ]
    },
    "request": {
      "method": "PUT",
      "url": "Practitioner/be229197-cc38-4c28-a9e1-a4b2d2614329"
    }
  }, {
    "fullUrl": "https://madie.cms.gov/Coverage/47b0a0fb-ec3c-4cea-8515-17eecca8fd91",
    "resource": {
      "resourceType": "Coverage",
      "id": "47b0a0fb-ec3c-4cea-8515-17eecca8fd91",
      "status": "active",
      "beneficiary": {
        "reference": "Patient/fbbd3f4a-3e8e-40b9-ac83-0e80b2c129ec"
      },
      "payor": [ {
        "reference": "Organization/97017dfa-4b5c-4418-8e9a-d32d6a7c21e9"
      } ]
    },
    "request": {
      "method": "PUT",
      "url": "Coverage/47b0a0fb-ec3c-4cea-8515-17eecca8fd91"
    }
  }, {
    "fullUrl": "https://madie.cms.gov/Organization/97017dfa-4b5c-4418-8e9a-d32d6a7c21e9",
    "resource": {
      "resourceType": "Organization",
      "id": "97017dfa-4b5c-4418-8e9a-d32d6a7c21e9",
      "identifier": [ {
        "system": "http://cms.gov/insurance-ids",
        "value": "AET12345"
      } ],
      "type": [ {
        "coding": [ {
          "system": "http://terminology.hl7.org/CodeSystem/organization-type",
          "code": "prov",
          "display": "Healthcare Provider"
        } ]
      } ],
      "name": "Aetna Insurance",
      "telecom": [ {
        "system": "phone",
        "value": "+1-800-123-4567"
      } ],
      "address": [ {
        "line": [ "123 Main Street" ],
        "city": "Cityville",
        "state": "CA",
        "postalCode": "12345",
        "country": "USA"
      } ]
    },
    "request": {
      "method": "PUT",
      "url": "Organization/97017dfa-4b5c-4418-8e9a-d32d6a7c21e9"
    }
  }, {
    "fullUrl": "https://madie.cms.gov/MeasureReport/80326df2-70d3-4abc-a73e-3d8531df4d75",
    "resource": {
      "resourceType": "MeasureReport",
      "id": "80326df2-70d3-4abc-a73e-3d8531df4d75",
      "meta": {
        "profile": [ "http://hl7.org/fhir/us/cqfmeasures/StructureDefinition/test-case-cqfm" ]
      },
      "contained": [ {
        "resourceType": "Parameters",
        "id": "f6868e96-718b-4a0e-9d82-ff07f5771891-parameters",
        "parameter": [ {
          "name": "subject",
          "valueString": "fbbd3f4a-3e8e-40b9-ac83-0e80b2c129ec"
        } ]
      } ],
      "extension": [ {
        "url": "http://hl7.org/fhir/StructureDefinition/cqf-inputParameters",
        "valueReference": {
          "reference": "#f6868e96-718b-4a0e-9d82-ff07f5771891-parameters"
        }
      }, {
        "url": "http://hl7.org/fhir/us/cqfmeasures/StructureDefinition/cqfm-testCaseDescription",
        "valueMarkdown": "RVariable Encounter With Anticoagulant Order At Admission"
      } ],
      "modifierExtension": [ {
        "url": "http://hl7.org/fhir/us/cqfmeasures/StructureDefinition/cqfm-isTestCase",
        "valueBoolean": true
      } ],
      "status": "complete",
      "type": "individual",
      "measure": "https://madie.cms.gov/Measure/CMS1017FHIRHHFI",
      "period": {
        "start": "2026-01-01",
        "end": "2026-12-31"
      },
      "group": [ {
        "id": "Group_1",
        "population": [ {
          "id": "InitialPopulation_1",
          "code": {
            "coding": [ {
              "system": "http://terminology.hl7.org/CodeSystem/measure-population",
              "code": "initial-population",
              "display": "Initial Population"
            } ]
          },
          "count": 1
        }, {
          "id": "Denominator_1",
          "code": {
            "coding": [ {
              "system": "http://terminology.hl7.org/CodeSystem/measure-population",
              "code": "denominator",
              "display": "Denominator"
            } ]
          },
          "count": 1
        }, {
          "id": "DenominatorExclusion_1",
          "code": {
            "coding": [ {
              "system": "http://terminology.hl7.org/CodeSystem/measure-population",
              "code": "denominator-exclusion",
              "display": "Denominator Exclusion"
            } ]
          },
          "count": 0
        }, {
          "id": "Numerator_1",
          "code": {
            "coding": [ {
              "system": "http://terminology.hl7.org/CodeSystem/measure-population",
              "code": "numerator",
              "display": "Numerator"
            } ]
          },
          "count": 1
        }, {
          "id": "NumeratorExclusion_1",
          "code": {
            "coding": [ {
              "system": "http://terminology.hl7.org/CodeSystem/measure-population",
              "code": "numerator-exclusion",
              "display": "Numerator Exclusion"
            } ]
          },
          "count": 0
        }, {
          "id": "MeasureObservation_1_1_1",
          "code": {
            "coding": [ {
              "system": "http://terminology.hl7.org/CodeSystem/measure-population",
              "code": "measure-observation",
              "display": "Measure Observation"
            } ]
          },
          "count": 12
        }, {
          "id": "MeasureObservation_1_2_1",
          "code": {
            "coding": [ {
              "system": "http://terminology.hl7.org/CodeSystem/measure-population",
              "code": "measure-observation",
              "display": "Measure Observation"
            } ]
          },
          "count": 1
        } ],
        "measureScore": {
          "value": 0.0
        }
      } ],
      "evaluatedResource": [ {
        "reference": "Encounter/0b2e10ed-30cd-49d7-a2ed-64d7c0f87b39"
      }, {
        "reference": "Encounter/05ea2e76-63ea-4887-8a65-55f537328f47"
      }, {
        "reference": "Patient/fbbd3f4a-3e8e-40b9-ac83-0e80b2c129ec"
      }, {
        "reference": "Claim/f37879b2-b839-479a-8e81-2b599f5712bb"
      }, {
        "reference": "Claim/094061cf-fdd5-4c6a-a4a4-e570129c9081"
      }, {
        "reference": "MedicationRequest/f825570d-fe3c-46e7-886e-8f7cb745421b"
      }, {
        "reference": "Practitioner/be229197-cc38-4c28-a9e1-a4b2d2614329"
      }, {
        "reference": "Coverage/47b0a0fb-ec3c-4cea-8515-17eecca8fd91"
      }, {
        "reference": "Organization/97017dfa-4b5c-4418-8e9a-d32d6a7c21e9"
      } ]
    },
    "request": {
      "method": "PUT",
      "url": "MeasureReport/80326df2-70d3-4abc-a73e-3d8531df4d75"
    }
  } ]
}