{
  "resourceType": "Bundle",
  "id": "NUMERPass-ModerateInjuryPOAandModInjNPOA",
  "type": "transaction",
  "entry": [ {
    "fullUrl": "https://madie.cms.gov/Encounter/e91d6813-ae7b-4b04-9cc6-5ef280481554",
    "resource": {
      "resourceType": "Encounter",
      "id": "e91d6813-ae7b-4b04-9cc6-5ef280481554",
      "meta": {
        "profile": [ "http://hl7.org/fhir/us/qicore/StructureDefinition/qicore-encounter" ]
      },
      "status": "finished",
      "class": {
        "system": "http://terminology.hl7.org/CodeSystem/v3-ActCode",
        "code": "IMP",
        "display": "inpatient encounter"
      },
      "type": [ {
        "coding": [ {
          "system": "http://snomed.info/sct",
          "code": "183452005"
        } ]
      } ],
      "subject": {
        "reference": "Patient/113d43da-4cad-4907-804e-63afb7652b27"
      },
      "period": {
        "start": "2026-11-09T11:00:00.000+00:00",
        "end": "2026-11-13T08:15:00.000+00:00"
      },
      "reasonReference": [ {
        "reference": "Condition/c6084106-bc54-4811-b974-d00c4817e054"
      }, {
        "reference": "Condition/8174d9ca-5f59-47a0-b2a2-808d3d0b0e8d"
      }, {
        "reference": "Condition/984c328d-e81a-4d7c-add2-9a3a8bf80a62"
      } ]
    },
    "request": {
      "method": "PUT",
      "url": "Encounter/e91d6813-ae7b-4b04-9cc6-5ef280481554"
    }
  }, {
    "fullUrl": "https://madie.cms.gov/Encounter/e0a9cf78-6e04-41f1-95e9-346b733fb847",
    "resource": {
      "resourceType": "Encounter",
      "id": "e0a9cf78-6e04-41f1-95e9-346b733fb847",
      "meta": {
        "profile": [ "http://hl7.org/fhir/us/qicore/StructureDefinition/qicore-encounter" ]
      },
      "status": "finished",
      "class": {
        "system": "http://terminology.hl7.org/CodeSystem/v3-ActCode",
        "code": "IMP",
        "display": "inpatient encounter"
      },
      "type": [ {
        "coding": [ {
          "system": "http://snomed.info/sct",
          "code": "4525004"
        } ]
      } ],
      "subject": {
        "reference": "Patient/113d43da-4cad-4907-804e-63afb7652b27"
      },
      "period": {
        "start": "2026-11-09T08:00:00.000+00:00",
        "end": "2026-11-09T10:15:00.000+00:00"
      }
    },
    "request": {
      "method": "PUT",
      "url": "Encounter/e0a9cf78-6e04-41f1-95e9-346b733fb847"
    }
  }, {
    "fullUrl": "https://madie.cms.gov/Condition/984c328d-e81a-4d7c-add2-9a3a8bf80a62",
    "resource": {
      "resourceType": "Condition",
      "id": "984c328d-e81a-4d7c-add2-9a3a8bf80a62",
      "meta": {
        "profile": [ "http://hl7.org/fhir/us/qicore/StructureDefinition/qicore-condition-encounter-diagnosis" ]
      },
      "clinicalStatus": {
        "coding": [ {
          "system": "http://terminology.hl7.org/CodeSystem/condition-clinical",
          "code": "active"
        } ]
      },
      "verificationStatus": {
        "coding": [ {
          "system": "http://terminology.hl7.org/CodeSystem/condition-ver-status",
          "code": "confirmed"
        } ]
      },
      "category": [ {
        "coding": [ {
          "system": "http://terminology.hl7.org/CodeSystem/condition-category",
          "code": "encounter-diagnosis",
          "display": "Encounter Diagnosis"
        } ]
      } ],
      "code": {
        "coding": [ {
          "system": "http://hl7.org/fhir/sid/icd-10-cm",
          "code": "S01.00XA"
        } ]
      },
      "subject": {
        "reference": "Patient/113d43da-4cad-4907-804e-63afb7652b27"
      },
      "encounter": {
        "reference": "Encounter/e91d6813-ae7b-4b04-9cc6-5ef280481554"
      }
    },
    "request": {
      "method": "PUT",
      "url": "Condition/984c328d-e81a-4d7c-add2-9a3a8bf80a62"
    }
  }, {
    "fullUrl": "https://madie.cms.gov/Condition/8174d9ca-5f59-47a0-b2a2-808d3d0b0e8d",
    "resource": {
      "resourceType": "Condition",
      "id": "8174d9ca-5f59-47a0-b2a2-808d3d0b0e8d",
      "meta": {
        "profile": [ "http://hl7.org/fhir/us/qicore/StructureDefinition/qicore-condition-encounter-diagnosis" ]
      },
      "clinicalStatus": {
        "coding": [ {
          "system": "http://terminology.hl7.org/CodeSystem/condition-clinical",
          "code": "active"
        } ]
      },
      "verificationStatus": {
        "coding": [ {
          "system": "http://terminology.hl7.org/CodeSystem/condition-ver-status",
          "code": "confirmed"
        } ]
      },
      "category": [ {
        "coding": [ {
          "system": "http://terminology.hl7.org/CodeSystem/condition-category",
          "code": "encounter-diagnosis",
          "display": "Encounter Diagnosis"
        } ]
      } ],
      "code": {
        "coding": [ {
          "system": "http://hl7.org/fhir/sid/icd-10-cm",
          "code": "S01.02XA"
        } ]
      },
      "subject": {
        "reference": "Patient/113d43da-4cad-4907-804e-63afb7652b27"
      },
      "encounter": {
        "reference": "Encounter/e91d6813-ae7b-4b04-9cc6-5ef280481554"
      }
    },
    "request": {
      "method": "PUT",
      "url": "Condition/8174d9ca-5f59-47a0-b2a2-808d3d0b0e8d"
    }
  }, {
    "fullUrl": "https://madie.cms.gov/Condition/c6084106-bc54-4811-b974-d00c4817e054",
    "resource": {
      "resourceType": "Condition",
      "id": "c6084106-bc54-4811-b974-d00c4817e054",
      "meta": {
        "profile": [ "http://hl7.org/fhir/us/qicore/StructureDefinition/qicore-condition-encounter-diagnosis" ]
      },
      "clinicalStatus": {
        "coding": [ {
          "system": "http://terminology.hl7.org/CodeSystem/condition-clinical",
          "code": "active"
        } ]
      },
      "verificationStatus": {
        "coding": [ {
          "system": "http://terminology.hl7.org/CodeSystem/condition-ver-status",
          "code": "confirmed"
        } ]
      },
      "category": [ {
        "coding": [ {
          "system": "http://terminology.hl7.org/CodeSystem/condition-category",
          "code": "encounter-diagnosis",
          "display": "Encounter Diagnosis"
        } ]
      } ],
      "code": {
        "coding": [ {
          "system": "http://hl7.org/fhir/sid/icd-10-cm",
          "code": "W01.0XXA"
        } ]
      },
      "subject": {
        "reference": "Patient/113d43da-4cad-4907-804e-63afb7652b27"
      },
      "encounter": {
        "reference": "Encounter/e91d6813-ae7b-4b04-9cc6-5ef280481554"
      }
    },
    "request": {
      "method": "PUT",
      "url": "Condition/c6084106-bc54-4811-b974-d00c4817e054"
    }
  }, {
    "fullUrl": "https://madie.cms.gov/Patient/113d43da-4cad-4907-804e-63afb7652b27",
    "resource": {
      "resourceType": "Patient",
      "id": "113d43da-4cad-4907-804e-63afb7652b27",
      "meta": {
        "profile": [ "http://hl7.org/fhir/us/qicore/StructureDefinition/qicore-patient" ]
      },
      "extension": [ {
        "url": "http://hl7.org/fhir/us/core/StructureDefinition/us-core-race",
        "extension": [ {
          "url": "ombCategory",
          "valueCoding": {
            "system": "urn:oid:2.16.840.1.113883.6.238",
            "code": "2028-9",
            "display": "Asian",
            "userSelected": true
          }
        }, {
          "url": "text",
          "valueString": "Asian"
        } ]
      }, {
        "url": "http://hl7.org/fhir/us/core/StructureDefinition/us-core-ethnicity",
        "extension": [ {
          "url": "ombCategory",
          "valueCoding": {
            "system": "urn:oid:2.16.840.1.113883.6.238",
            "code": "2186-5",
            "display": "Not Hispanic or Latino",
            "userSelected": true
          }
        }, {
          "url": "text",
          "valueString": "Not Hispanic or Latino"
        } ]
      } ],
      "identifier": [ {
        "type": {
          "coding": [ {
            "system": "http://terminology.hl7.org/CodeSystem/v2-0203",
            "code": "MR"
          } ]
        },
        "system": "https://bonnie-fhir.healthit.gov/",
        "value": "61152a3b98086b7a79cbd7c1"
      } ],
      "active": true,
      "name": [ {
        "use": "usual",
        "family": "NUMERPass",
        "given": [ "ModerateInjuryPOAandModInjNPOA" ]
      } ],
      "gender": "male",
      "birthDate": "2000-09-09"
    },
    "request": {
      "method": "PUT",
      "url": "Patient/113d43da-4cad-4907-804e-63afb7652b27"
    }
  }, {
    "fullUrl": "https://madie.cms.gov/Claim/63b67ec6-f262-4e31-9690-d452793e1998",
    "resource": {
      "resourceType": "Claim",
      "id": "63b67ec6-f262-4e31-9690-d452793e1998",
      "meta": {
        "profile": [ "http://hl7.org/fhir/us/qicore/StructureDefinition/qicore-claim" ]
      },
      "status": "active",
      "type": {
        "coding": [ {
          "system": "http://terminology.hl7.org/CodeSystem/claim-type",
          "code": "institutional"
        } ]
      },
      "use": "claim",
      "patient": {
        "reference": "Patient/113d43da-4cad-4907-804e-63afb7652b27"
      },
      "billablePeriod": {
        "start": "2026-11-09",
        "end": "2026-11-13"
      },
      "created": "2026-11-13",
      "provider": {
        "reference": "Practitioner/practitioner-1"
      },
      "priority": {
        "coding": [ {
          "code": "normal"
        } ]
      },
      "diagnosis": [ {
        "sequence": 1,
        "diagnosisCodeableConcept": {
          "coding": [ {
            "system": "http://hl7.org/fhir/sid/icd-10-cm",
            "code": "W01.0XXA"
          } ]
        },
        "onAdmission": {
          "coding": [ {
            "system": "https://www.cms.gov/Medicare/Medicare-Fee-for-Service-Payment/HospitalAcqCond/Coding",
            "code": "N"
          } ]
        }
      } ],
      "insurance": [ {
        "sequence": 1,
        "focal": true,
        "coverage": {
          "reference": "Coverage/coverage-1"
        }
      } ],
      "item": [ {
        "sequence": 1,
        "diagnosisSequence": [ 1, 2, 3 ],
        "productOrService": {
          "coding": [ {
            "system": "http://terminology.hl7.org/CodeSystem/ex-USCLS",
            "code": "1101"
          } ]
        },
        "encounter": [ {
          "reference": "Encounter/e91d6813-ae7b-4b04-9cc6-5ef280481554"
        } ]
      } ]
    },
    "request": {
      "method": "PUT",
      "url": "Claim/63b67ec6-f262-4e31-9690-d452793e1998"
    }
  }, {
    "fullUrl": "https://madie.cms.gov/Claim/ea631267-abad-4db8-8bfd-10f5cb7c307a",
    "resource": {
      "resourceType": "Claim",
      "id": "ea631267-abad-4db8-8bfd-10f5cb7c307a",
      "meta": {
        "profile": [ "http://hl7.org/fhir/us/qicore/StructureDefinition/qicore-claim" ]
      },
      "status": "active",
      "type": {
        "coding": [ {
          "system": "http://terminology.hl7.org/CodeSystem/claim-type",
          "code": "institutional"
        } ]
      },
      "use": "claim",
      "patient": {
        "reference": "Patient/113d43da-4cad-4907-804e-63afb7652b27"
      },
      "billablePeriod": {
        "start": "2026-11-09",
        "end": "2026-11-13"
      },
      "created": "2026-11-13",
      "provider": {
        "reference": "Practitioner/practitioner-1"
      },
      "priority": {
        "coding": [ {
          "code": "normal"
        } ]
      },
      "diagnosis": [ {
        "sequence": 2,
        "diagnosisCodeableConcept": {
          "coding": [ {
            "system": "http://hl7.org/fhir/sid/icd-10-cm",
            "code": "S01.02XA"
          } ]
        },
        "onAdmission": {
          "coding": [ {
            "system": "https://www.cms.gov/Medicare/Medicare-Fee-for-Service-Payment/HospitalAcqCond/Coding",
            "code": "W"
          } ]
        }
      } ],
      "insurance": [ {
        "sequence": 1,
        "focal": true,
        "coverage": {
          "reference": "Coverage/coverage-1"
        }
      } ],
      "item": [ {
        "sequence": 1,
        "diagnosisSequence": [ 1, 2, 3 ],
        "productOrService": {
          "coding": [ {
            "system": "http://terminology.hl7.org/CodeSystem/ex-USCLS",
            "code": "1101"
          } ]
        },
        "encounter": [ {
          "reference": "Encounter/e91d6813-ae7b-4b04-9cc6-5ef280481554"
        } ]
      } ]
    },
    "request": {
      "method": "PUT",
      "url": "Claim/ea631267-abad-4db8-8bfd-10f5cb7c307a"
    }
  }, {
    "fullUrl": "https://madie.cms.gov/Claim/b3c83dda-66c8-4ec2-b62d-389c238c083c",
    "resource": {
      "resourceType": "Claim",
      "id": "b3c83dda-66c8-4ec2-b62d-389c238c083c",
      "meta": {
        "profile": [ "http://hl7.org/fhir/us/qicore/StructureDefinition/qicore-claim" ]
      },
      "status": "active",
      "type": {
        "coding": [ {
          "system": "http://terminology.hl7.org/CodeSystem/claim-type",
          "code": "institutional"
        } ]
      },
      "use": "claim",
      "patient": {
        "reference": "Patient/113d43da-4cad-4907-804e-63afb7652b27"
      },
      "billablePeriod": {
        "start": "2026-11-09",
        "end": "2026-11-13"
      },
      "created": "2026-11-13",
      "provider": {
        "reference": "Practitioner/practitioner-1"
      },
      "priority": {
        "coding": [ {
          "code": "normal"
        } ]
      },
      "diagnosis": [ {
        "sequence": 3,
        "diagnosisCodeableConcept": {
          "coding": [ {
            "system": "http://hl7.org/fhir/sid/icd-10-cm",
            "code": "S01.00XA"
          } ]
        },
        "onAdmission": {
          "coding": [ {
            "system": "https://www.cms.gov/Medicare/Medicare-Fee-for-Service-Payment/HospitalAcqCond/Coding",
            "code": "N"
          } ]
        }
      } ],
      "insurance": [ {
        "sequence": 1,
        "focal": true,
        "coverage": {
          "reference": "Coverage/coverage-1"
        }
      } ],
      "item": [ {
        "sequence": 1,
        "diagnosisSequence": [ 1, 2, 3 ],
        "productOrService": {
          "coding": [ {
            "system": "http://terminology.hl7.org/CodeSystem/ex-USCLS",
            "code": "1101"
          } ]
        },
        "encounter": [ {
          "reference": "Encounter/e91d6813-ae7b-4b04-9cc6-5ef280481554"
        } ]
      } ]
    },
    "request": {
      "method": "PUT",
      "url": "Claim/b3c83dda-66c8-4ec2-b62d-389c238c083c"
    }
  }, {
    "fullUrl": "https://madie.cms.gov/Practitioner/5c3cbfef-cb3f-47cf-b89f-45c81bafb73b",
    "resource": {
      "resourceType": "Practitioner",
      "id": "5c3cbfef-cb3f-47cf-b89f-45c81bafb73b",
      "identifier": [ {
        "system": "http://www.cms.gov/identifiers/pracitioners",
        "value": "P12345"
      } ],
      "name": [ {
        "use": "official",
        "family": "Smith",
        "given": [ "John" ]
      } ],
      "qualification": [ {
        "identifier": [ {
          "system": "http://hl7.org/fhir/sid/us-npi",
          "value": "1234567890"
        } ],
        "code": {
          "coding": [ {
            "system": "http://terminology.hl7.org/CodeSystem/v2-0203",
            "code": "MD",
            "display": "Medical License number"
          } ]
        }
      } ]
    },
    "request": {
      "method": "PUT",
      "url": "Practitioner/5c3cbfef-cb3f-47cf-b89f-45c81bafb73b"
    }
  }, {
    "fullUrl": "https://madie.cms.gov/Coverage/de7aee40-193a-4584-9099-7c7df4b525ac",
    "resource": {
      "resourceType": "Coverage",
      "id": "de7aee40-193a-4584-9099-7c7df4b525ac",
      "status": "active",
      "beneficiary": {
        "reference": "Patient/113d43da-4cad-4907-804e-63afb7652b27"
      },
      "payor": [ {
        "reference": "Organization/bd3661a8-e4c4-4813-b315-66ec9d9d505e"
      } ]
    },
    "request": {
      "method": "PUT",
      "url": "Coverage/de7aee40-193a-4584-9099-7c7df4b525ac"
    }
  }, {
    "fullUrl": "https://madie.cms.gov/Organization/bd3661a8-e4c4-4813-b315-66ec9d9d505e",
    "resource": {
      "resourceType": "Organization",
      "id": "bd3661a8-e4c4-4813-b315-66ec9d9d505e",
      "identifier": [ {
        "system": "http://cms.gov/insurance-ids",
        "value": "AET12345"
      } ],
      "type": [ {
        "coding": [ {
          "system": "http://terminology.hl7.org/CodeSystem/organization-type",
          "code": "prov",
          "display": "Healthcare Provider"
        } ]
      } ],
      "name": "Aetna Insurance",
      "telecom": [ {
        "system": "phone",
        "value": "+1-800-123-4567"
      } ],
      "address": [ {
        "line": [ "123 Main Street" ],
        "city": "Cityville",
        "state": "CA",
        "postalCode": "12345",
        "country": "USA"
      } ]
    },
    "request": {
      "method": "PUT",
      "url": "Organization/bd3661a8-e4c4-4813-b315-66ec9d9d505e"
    }
  }, {
    "fullUrl": "https://madie.cms.gov/MeasureReport/34f45792-b2e7-4105-b733-3ae7f359a2e5",
    "resource": {
      "resourceType": "MeasureReport",
      "id": "34f45792-b2e7-4105-b733-3ae7f359a2e5",
      "meta": {
        "profile": [ "http://hl7.org/fhir/us/cqfmeasures/StructureDefinition/test-case-cqfm" ]
      },
      "contained": [ {
        "resourceType": "Parameters",
        "id": "9436403f-0761-4b55-96ae-b80df000ab81-parameters",
        "parameter": [ {
          "name": "subject",
          "valueString": "113d43da-4cad-4907-804e-63afb7652b27"
        } ]
      } ],
      "extension": [ {
        "url": "http://hl7.org/fhir/StructureDefinition/cqf-inputParameters",
        "valueReference": {
          "reference": "#9436403f-0761-4b55-96ae-b80df000ab81-parameters"
        }
      }, {
        "url": "http://hl7.org/fhir/us/cqfmeasures/StructureDefinition/cqfm-testCaseDescription",
        "valueMarkdown": "Enc diag includes a moderate injury POA and another mod injury NPOA. Also includes a fall NPOA. Meets Numerator because having an injury POA should not remove them from potential of another injury NPOA from a fall NPOA that occurs during the enc."
      } ],
      "modifierExtension": [ {
        "url": "http://hl7.org/fhir/us/cqfmeasures/StructureDefinition/cqfm-isTestCase",
        "valueBoolean": true
      } ],
      "status": "complete",
      "type": "individual",
      "measure": "https://madie.cms.gov/Measure/CMS1017FHIRHHFI",
      "period": {
        "start": "2026-01-01",
        "end": "2026-12-31"
      },
      "group": [ {
        "id": "Group_1",
        "population": [ {
          "id": "InitialPopulation_1",
          "code": {
            "coding": [ {
              "system": "http://terminology.hl7.org/CodeSystem/measure-population",
              "code": "initial-population",
              "display": "Initial Population"
            } ]
          },
          "count": 1
        }, {
          "id": "Denominator_1",
          "code": {
            "coding": [ {
              "system": "http://terminology.hl7.org/CodeSystem/measure-population",
              "code": "denominator",
              "display": "Denominator"
            } ]
          },
          "count": 1
        }, {
          "id": "DenominatorExclusion_1",
          "code": {
            "coding": [ {
              "system": "http://terminology.hl7.org/CodeSystem/measure-population",
              "code": "denominator-exclusion",
              "display": "Denominator Exclusion"
            } ]
          },
          "count": 0
        }, {
          "id": "Numerator_1",
          "code": {
            "coding": [ {
              "system": "http://terminology.hl7.org/CodeSystem/measure-population",
              "code": "numerator",
              "display": "Numerator"
            } ]
          },
          "count": 1
        }, {
          "id": "NumeratorExclusion_1",
          "code": {
            "coding": [ {
              "system": "http://terminology.hl7.org/CodeSystem/measure-population",
              "code": "numerator-exclusion",
              "display": "Numerator Exclusion"
            } ]
          },
          "count": 0
        }, {
          "id": "MeasureObservation_1_1_1",
          "code": {
            "coding": [ {
              "system": "http://terminology.hl7.org/CodeSystem/measure-population",
              "code": "measure-observation",
              "display": "Measure Observation"
            } ]
          },
          "count": 4
        }, {
          "id": "MeasureObservation_1_2_1",
          "code": {
            "coding": [ {
              "system": "http://terminology.hl7.org/CodeSystem/measure-population",
              "code": "measure-observation",
              "display": "Measure Observation"
            } ]
          },
          "count": 1
        } ],
        "measureScore": {
          "value": 0.0
        }
      } ],
      "evaluatedResource": [ {
        "reference": "Encounter/e91d6813-ae7b-4b04-9cc6-5ef280481554"
      }, {
        "reference": "Encounter/e0a9cf78-6e04-41f1-95e9-346b733fb847"
      }, {
        "reference": "Condition/984c328d-e81a-4d7c-add2-9a3a8bf80a62"
      }, {
        "reference": "Condition/8174d9ca-5f59-47a0-b2a2-808d3d0b0e8d"
      }, {
        "reference": "Condition/c6084106-bc54-4811-b974-d00c4817e054"
      }, {
        "reference": "Patient/113d43da-4cad-4907-804e-63afb7652b27"
      }, {
        "reference": "Claim/63b67ec6-f262-4e31-9690-d452793e1998"
      }, {
        "reference": "Claim/ea631267-abad-4db8-8bfd-10f5cb7c307a"
      }, {
        "reference": "Claim/b3c83dda-66c8-4ec2-b62d-389c238c083c"
      }, {
        "reference": "Practitioner/5c3cbfef-cb3f-47cf-b89f-45c81bafb73b"
      }, {
        "reference": "Coverage/de7aee40-193a-4584-9099-7c7df4b525ac"
      }, {
        "reference": "Organization/bd3661a8-e4c4-4813-b315-66ec9d9d505e"
      } ]
    },
    "request": {
      "method": "PUT",
      "url": "MeasureReport/34f45792-b2e7-4105-b733-3ae7f359a2e5"
    }
  } ]
}