{
  "resourceType": "Bundle",
  "id": "DENOMPass-RVDepressionDxPOA",
  "type": "transaction",
  "entry": [ {
    "fullUrl": "https://madie.cms.gov/Claim/8e350943-84dc-440b-af87-925f474d31b3",
    "resource": {
      "resourceType": "Claim",
      "id": "8e350943-84dc-440b-af87-925f474d31b3",
      "meta": {
        "profile": [ "http://hl7.org/fhir/us/qicore/StructureDefinition/qicore-claim" ]
      },
      "status": "active",
      "type": {
        "coding": [ {
          "system": "http://terminology.hl7.org/CodeSystem/claim-type",
          "code": "professional",
          "display": "Professional"
        } ]
      },
      "use": "claim",
      "patient": {
        "reference": "Patient/8b607dee-4e17-492d-9949-0c69c10587e3"
      },
      "created": "2026-12-12",
      "provider": {
        "reference": "Practitioner/24f8d461-3808-404b-a48e-675b3f1dd511"
      },
      "priority": {
        "coding": [ {
          "system": "http://terminology.hl7.org/CodeSystem/processpriority",
          "code": "normal"
        } ]
      },
      "diagnosis": [ {
        "sequence": 1,
        "diagnosisCodeableConcept": {
          "coding": [ {
            "system": "http://hl7.org/fhir/sid/icd-10-cm",
            "code": "F31.31"
          } ]
        },
        "onAdmission": {
          "coding": [ {
            "system": "https://www.cms.gov/Medicare/Medicare-Fee-for-Service-Payment/HospitalAcqCond/Coding",
            "code": "Y"
          } ]
        }
      } ],
      "insurance": [ {
        "sequence": 1,
        "focal": true,
        "coverage": {
          "reference": "Coverage/07ff490c-a8c8-46ea-af0b-36663b5106f0"
        }
      } ],
      "item": [ {
        "sequence": 1,
        "diagnosisSequence": [ 1, 2 ],
        "productOrService": {
          "coding": [ {
            "system": "http://terminology.hl7.org/CodeSystem/ex-USCLS",
            "code": "1101"
          } ]
        },
        "encounter": [ {
          "reference": "Encounter/d75e3f54-880e-4ad2-92f8-0b13849ca758"
        } ]
      } ]
    },
    "request": {
      "method": "PUT",
      "url": "Claim/8e350943-84dc-440b-af87-925f474d31b3"
    }
  }, {
    "fullUrl": "https://madie.cms.gov/Patient/8b607dee-4e17-492d-9949-0c69c10587e3",
    "resource": {
      "resourceType": "Patient",
      "id": "8b607dee-4e17-492d-9949-0c69c10587e3",
      "meta": {
        "profile": [ "http://hl7.org/fhir/us/qicore/StructureDefinition/qicore-patient" ]
      },
      "extension": [ {
        "url": "http://hl7.org/fhir/us/core/StructureDefinition/us-core-race",
        "extension": [ {
          "url": "ombCategory",
          "valueCoding": {
            "system": "urn:oid:2.16.840.1.113883.6.238",
            "code": "1002-5",
            "display": "American Indian or Alaska Native",
            "userSelected": true
          }
        }, {
          "url": "text",
          "valueString": "American Indian or Alaska Native"
        } ]
      }, {
        "url": "http://hl7.org/fhir/us/core/StructureDefinition/us-core-ethnicity",
        "extension": [ {
          "url": "ombCategory",
          "valueCoding": {
            "system": "urn:oid:2.16.840.1.113883.6.238",
            "code": "2135-2",
            "display": "Hispanic or Latino",
            "userSelected": true
          }
        }, {
          "url": "text",
          "valueString": "Hispanic or Latino"
        } ]
      } ],
      "identifier": [ {
        "type": {
          "coding": [ {
            "system": "http://terminology.hl7.org/CodeSystem/v2-0203",
            "code": "MR"
          } ]
        },
        "system": "https://bonnie-fhir.healthit.gov/",
        "value": "61152a3b98086b7a79cbd7c1"
      } ],
      "active": true,
      "name": [ {
        "use": "usual",
        "family": "DENOMPass",
        "given": [ "RVDeliriumDxPOA" ]
      } ],
      "gender": "female",
      "birthDate": "1964-12-11"
    },
    "request": {
      "method": "PUT",
      "url": "Patient/8b607dee-4e17-492d-9949-0c69c10587e3"
    }
  }, {
    "fullUrl": "https://madie.cms.gov/Encounter/d75e3f54-880e-4ad2-92f8-0b13849ca758",
    "resource": {
      "resourceType": "Encounter",
      "id": "d75e3f54-880e-4ad2-92f8-0b13849ca758",
      "meta": {
        "profile": [ "http://hl7.org/fhir/us/qicore/StructureDefinition/qicore-encounter" ]
      },
      "status": "finished",
      "class": {
        "system": "http://terminology.hl7.org/CodeSystem/v3-ActCode",
        "code": "IMP",
        "display": "inpatient encounter"
      },
      "type": [ {
        "coding": [ {
          "system": "http://snomed.info/sct",
          "code": "183452005",
          "display": "Emergency hospital admission"
        } ]
      } ],
      "subject": {
        "reference": "Patient/8b607dee-4e17-492d-9949-0c69c10587e3"
      },
      "period": {
        "start": "2026-11-12T08:00:00.000+00:00",
        "end": "2026-11-18T08:01:00.000+00:00"
      },
      "length": {
        "value": 6,
        "unit": "days"
      }
    },
    "request": {
      "method": "PUT",
      "url": "Encounter/d75e3f54-880e-4ad2-92f8-0b13849ca758"
    }
  }, {
    "fullUrl": "https://madie.cms.gov/Practitioner/24f8d461-3808-404b-a48e-675b3f1dd511",
    "resource": {
      "resourceType": "Practitioner",
      "id": "24f8d461-3808-404b-a48e-675b3f1dd511",
      "identifier": [ {
        "system": "http://www.cms.gov/identifiers/pracitioners",
        "value": "P12345"
      } ],
      "name": [ {
        "use": "official",
        "family": "Smith",
        "given": [ "John" ]
      } ],
      "qualification": [ {
        "identifier": [ {
          "system": "http://hl7.org/fhir/sid/us-npi",
          "value": "1234567890"
        } ],
        "code": {
          "coding": [ {
            "system": "http://terminology.hl7.org/CodeSystem/v2-0203",
            "code": "MD",
            "display": "Medical License number"
          } ]
        }
      } ]
    },
    "request": {
      "method": "PUT",
      "url": "Practitioner/24f8d461-3808-404b-a48e-675b3f1dd511"
    }
  }, {
    "fullUrl": "https://madie.cms.gov/Coverage/07ff490c-a8c8-46ea-af0b-36663b5106f0",
    "resource": {
      "resourceType": "Coverage",
      "id": "07ff490c-a8c8-46ea-af0b-36663b5106f0",
      "status": "active",
      "beneficiary": {
        "reference": "Patient/8b607dee-4e17-492d-9949-0c69c10587e3"
      },
      "payor": [ {
        "reference": "Organization/e2730727-ce3f-4707-b475-764af660421a"
      } ]
    },
    "request": {
      "method": "PUT",
      "url": "Coverage/07ff490c-a8c8-46ea-af0b-36663b5106f0"
    }
  }, {
    "fullUrl": "https://madie.cms.gov/Organization/e2730727-ce3f-4707-b475-764af660421a",
    "resource": {
      "resourceType": "Organization",
      "id": "e2730727-ce3f-4707-b475-764af660421a",
      "identifier": [ {
        "system": "http://cms.gov/insurance-ids",
        "value": "AET12345"
      } ],
      "type": [ {
        "coding": [ {
          "system": "http://terminology.hl7.org/CodeSystem/organization-type",
          "code": "prov",
          "display": "Healthcare Provider"
        } ]
      } ],
      "name": "Aetna Insurance",
      "telecom": [ {
        "system": "phone",
        "value": "+1-800-123-4567"
      } ],
      "address": [ {
        "line": [ "123 Main Street" ],
        "city": "Cityville",
        "state": "CA",
        "postalCode": "12345",
        "country": "USA"
      } ]
    },
    "request": {
      "method": "PUT",
      "url": "Organization/e2730727-ce3f-4707-b475-764af660421a"
    }
  }, {
    "fullUrl": "https://madie.cms.gov/MeasureReport/6d5e72d2-8ab9-4f92-b541-d032a31d194c",
    "resource": {
      "resourceType": "MeasureReport",
      "id": "6d5e72d2-8ab9-4f92-b541-d032a31d194c",
      "meta": {
        "profile": [ "http://hl7.org/fhir/us/cqfmeasures/StructureDefinition/test-case-cqfm" ]
      },
      "contained": [ {
        "resourceType": "Parameters",
        "id": "80ec07bb-4e26-4498-86c9-fabdc891e358-parameters",
        "parameter": [ {
          "name": "subject",
          "valueString": "8b607dee-4e17-492d-9949-0c69c10587e3"
        } ]
      } ],
      "extension": [ {
        "url": "http://hl7.org/fhir/StructureDefinition/cqf-inputParameters",
        "valueReference": {
          "reference": "#80ec07bb-4e26-4498-86c9-fabdc891e358-parameters"
        }
      }, {
        "url": "http://hl7.org/fhir/us/cqfmeasures/StructureDefinition/cqfm-testCaseDescription",
        "valueMarkdown": "Encounter with Depression Present dx POA = Y. Meets RV"
      } ],
      "modifierExtension": [ {
        "url": "http://hl7.org/fhir/us/cqfmeasures/StructureDefinition/cqfm-isTestCase",
        "valueBoolean": true
      } ],
      "status": "complete",
      "type": "individual",
      "measure": "https://madie.cms.gov/Measure/CMS1017FHIRHHFI",
      "period": {
        "start": "2026-01-01",
        "end": "2026-12-31"
      },
      "group": [ {
        "id": "Group_1",
        "population": [ {
          "id": "InitialPopulation_1",
          "code": {
            "coding": [ {
              "system": "http://terminology.hl7.org/CodeSystem/measure-population",
              "code": "initial-population",
              "display": "Initial Population"
            } ]
          },
          "count": 1
        }, {
          "id": "Denominator_1",
          "code": {
            "coding": [ {
              "system": "http://terminology.hl7.org/CodeSystem/measure-population",
              "code": "denominator",
              "display": "Denominator"
            } ]
          },
          "count": 1
        }, {
          "id": "DenominatorExclusion_1",
          "code": {
            "coding": [ {
              "system": "http://terminology.hl7.org/CodeSystem/measure-population",
              "code": "denominator-exclusion",
              "display": "Denominator Exclusion"
            } ]
          },
          "count": 0
        }, {
          "id": "Numerator_1",
          "code": {
            "coding": [ {
              "system": "http://terminology.hl7.org/CodeSystem/measure-population",
              "code": "numerator",
              "display": "Numerator"
            } ]
          },
          "count": 0
        }, {
          "id": "NumeratorExclusion_1",
          "code": {
            "coding": [ {
              "system": "http://terminology.hl7.org/CodeSystem/measure-population",
              "code": "numerator-exclusion",
              "display": "Numerator Exclusion"
            } ]
          },
          "count": 0
        }, {
          "id": "MeasureObservation_1_1_1",
          "code": {
            "coding": [ {
              "system": "http://terminology.hl7.org/CodeSystem/measure-population",
              "code": "measure-observation",
              "display": "Measure Observation"
            } ]
          },
          "count": 6
        } ],
        "measureScore": {
          "value": 0.0
        }
      } ],
      "evaluatedResource": [ {
        "reference": "Claim/8e350943-84dc-440b-af87-925f474d31b3"
      }, {
        "reference": "Patient/8b607dee-4e17-492d-9949-0c69c10587e3"
      }, {
        "reference": "Encounter/d75e3f54-880e-4ad2-92f8-0b13849ca758"
      }, {
        "reference": "Practitioner/24f8d461-3808-404b-a48e-675b3f1dd511"
      }, {
        "reference": "Coverage/07ff490c-a8c8-46ea-af0b-36663b5106f0"
      }, {
        "reference": "Organization/e2730727-ce3f-4707-b475-764af660421a"
      } ]
    },
    "request": {
      "method": "PUT",
      "url": "MeasureReport/6d5e72d2-8ab9-4f92-b541-d032a31d194c"
    }
  } ]
}