{
  "resourceType": "Bundle",
  "id": "EncounterFallandModInjuryNPOA",
  "type": "transaction",
  "entry": [ {
    "fullUrl": "https://madie.cms.gov/Encounter/5bf75f51-6351-461a-82cf-8eef7fd5bad5",
    "resource": {
      "resourceType": "Encounter",
      "id": "5bf75f51-6351-461a-82cf-8eef7fd5bad5",
      "meta": {
        "profile": [ "http://hl7.org/fhir/us/qicore/StructureDefinition/qicore-encounter" ]
      },
      "status": "finished",
      "class": {
        "system": "http://terminology.hl7.org/CodeSystem/v3-ActCode",
        "code": "IMP",
        "display": "inpatient encounter"
      },
      "type": [ {
        "coding": [ {
          "system": "http://snomed.info/sct",
          "code": "183452005"
        } ]
      } ],
      "subject": {
        "reference": "Patient/d305cce9-ad3c-4259-9f9d-6026974fa847"
      },
      "period": {
        "start": "2026-11-09T11:00:00.000+00:00",
        "end": "2026-11-13T08:15:00.000+00:00"
      },
      "reasonReference": [ {
        "reference": "Condition/56847da7-b7e1-42a3-8616-c944f06d6e52"
      }, {
        "reference": "Condition/cfe8e4bc-99fb-4a8c-b2bd-078b245cf847"
      } ]
    },
    "request": {
      "method": "PUT",
      "url": "Encounter/5bf75f51-6351-461a-82cf-8eef7fd5bad5"
    }
  }, {
    "fullUrl": "https://madie.cms.gov/Encounter/ef3482f2-d477-45fb-ae95-639d3ffee18e",
    "resource": {
      "resourceType": "Encounter",
      "id": "ef3482f2-d477-45fb-ae95-639d3ffee18e",
      "meta": {
        "profile": [ "http://hl7.org/fhir/us/qicore/StructureDefinition/qicore-encounter" ]
      },
      "status": "finished",
      "class": {
        "system": "http://terminology.hl7.org/CodeSystem/v3-ActCode",
        "code": "IMP",
        "display": "inpatient encounter"
      },
      "type": [ {
        "coding": [ {
          "system": "http://snomed.info/sct",
          "code": "4525004"
        } ]
      } ],
      "subject": {
        "reference": "Patient/d305cce9-ad3c-4259-9f9d-6026974fa847"
      },
      "period": {
        "start": "2026-11-09T08:00:00.000+00:00",
        "end": "2026-11-09T10:15:00.000+00:00"
      }
    },
    "request": {
      "method": "PUT",
      "url": "Encounter/ef3482f2-d477-45fb-ae95-639d3ffee18e"
    }
  }, {
    "fullUrl": "https://madie.cms.gov/Condition/cfe8e4bc-99fb-4a8c-b2bd-078b245cf847",
    "resource": {
      "resourceType": "Condition",
      "id": "cfe8e4bc-99fb-4a8c-b2bd-078b245cf847",
      "meta": {
        "profile": [ "http://hl7.org/fhir/us/qicore/StructureDefinition/qicore-condition-encounter-diagnosis" ]
      },
      "clinicalStatus": {
        "coding": [ {
          "system": "http://terminology.hl7.org/CodeSystem/condition-clinical",
          "code": "active"
        } ]
      },
      "verificationStatus": {
        "coding": [ {
          "system": "http://terminology.hl7.org/CodeSystem/condition-ver-status",
          "code": "confirmed"
        } ]
      },
      "category": [ {
        "coding": [ {
          "system": "http://terminology.hl7.org/CodeSystem/condition-category",
          "code": "encounter-diagnosis",
          "display": "Encounter Diagnosis"
        } ]
      } ],
      "code": {
        "coding": [ {
          "system": "http://hl7.org/fhir/sid/icd-10-cm",
          "code": "S01.02XA"
        } ]
      },
      "subject": {
        "reference": "Patient/d305cce9-ad3c-4259-9f9d-6026974fa847"
      },
      "encounter": {
        "reference": "Encounter/5bf75f51-6351-461a-82cf-8eef7fd5bad5"
      }
    },
    "request": {
      "method": "PUT",
      "url": "Condition/cfe8e4bc-99fb-4a8c-b2bd-078b245cf847"
    }
  }, {
    "fullUrl": "https://madie.cms.gov/Condition/56847da7-b7e1-42a3-8616-c944f06d6e52",
    "resource": {
      "resourceType": "Condition",
      "id": "56847da7-b7e1-42a3-8616-c944f06d6e52",
      "meta": {
        "profile": [ "http://hl7.org/fhir/us/qicore/StructureDefinition/qicore-condition-encounter-diagnosis" ]
      },
      "clinicalStatus": {
        "coding": [ {
          "system": "http://terminology.hl7.org/CodeSystem/condition-clinical",
          "code": "active"
        } ]
      },
      "verificationStatus": {
        "coding": [ {
          "system": "http://terminology.hl7.org/CodeSystem/condition-ver-status",
          "code": "confirmed"
        } ]
      },
      "category": [ {
        "coding": [ {
          "system": "http://terminology.hl7.org/CodeSystem/condition-category",
          "code": "encounter-diagnosis",
          "display": "Encounter Diagnosis"
        } ]
      } ],
      "code": {
        "coding": [ {
          "system": "http://hl7.org/fhir/sid/icd-10-cm",
          "code": "W01.0XXA"
        } ]
      },
      "subject": {
        "reference": "Patient/d305cce9-ad3c-4259-9f9d-6026974fa847"
      },
      "encounter": {
        "reference": "Encounter/5bf75f51-6351-461a-82cf-8eef7fd5bad5"
      }
    },
    "request": {
      "method": "PUT",
      "url": "Condition/56847da7-b7e1-42a3-8616-c944f06d6e52"
    }
  }, {
    "fullUrl": "https://madie.cms.gov/Patient/d305cce9-ad3c-4259-9f9d-6026974fa847",
    "resource": {
      "resourceType": "Patient",
      "id": "d305cce9-ad3c-4259-9f9d-6026974fa847",
      "meta": {
        "profile": [ "http://hl7.org/fhir/us/qicore/StructureDefinition/qicore-patient" ]
      },
      "extension": [ {
        "url": "http://hl7.org/fhir/us/core/StructureDefinition/us-core-race",
        "extension": [ {
          "url": "ombCategory",
          "valueCoding": {
            "system": "urn:oid:2.16.840.1.113883.6.238",
            "code": "2028-9",
            "display": "Asian",
            "userSelected": true
          }
        }, {
          "url": "text",
          "valueString": "Asian"
        } ]
      }, {
        "url": "http://hl7.org/fhir/us/core/StructureDefinition/us-core-ethnicity",
        "extension": [ {
          "url": "ombCategory",
          "valueCoding": {
            "system": "urn:oid:2.16.840.1.113883.6.238",
            "code": "2186-5",
            "display": "Not Hispanic or Latino",
            "userSelected": true
          }
        }, {
          "url": "text",
          "valueString": "Not Hispanic or Latino"
        } ]
      } ],
      "identifier": [ {
        "type": {
          "coding": [ {
            "system": "http://terminology.hl7.org/CodeSystem/v2-0203",
            "code": "MR"
          } ]
        },
        "system": "https://bonnie-fhir.healthit.gov/",
        "value": "61152a3b98086b7a79cbd7c1"
      } ],
      "active": true,
      "name": [ {
        "use": "usual",
        "family": "NUMERPass",
        "given": [ "EncounterFallandModInjuryNPOA" ]
      } ],
      "gender": "male",
      "birthDate": "2000-09-09"
    },
    "request": {
      "method": "PUT",
      "url": "Patient/d305cce9-ad3c-4259-9f9d-6026974fa847"
    }
  }, {
    "fullUrl": "https://madie.cms.gov/Claim/499e8750-f9ed-4fbb-805a-b983baabd821",
    "resource": {
      "resourceType": "Claim",
      "id": "499e8750-f9ed-4fbb-805a-b983baabd821",
      "meta": {
        "profile": [ "http://hl7.org/fhir/us/qicore/StructureDefinition/qicore-claim" ]
      },
      "status": "active",
      "type": {
        "coding": [ {
          "system": "http://terminology.hl7.org/CodeSystem/claim-type",
          "code": "institutional"
        } ]
      },
      "use": "claim",
      "patient": {
        "reference": "Patient/d305cce9-ad3c-4259-9f9d-6026974fa847"
      },
      "billablePeriod": {
        "start": "2026-11-09",
        "end": "2026-11-13"
      },
      "created": "2026-11-13",
      "provider": {
        "reference": "Practitioner/practitioner-1"
      },
      "priority": {
        "coding": [ {
          "code": "normal"
        } ]
      },
      "diagnosis": [ {
        "sequence": 1,
        "diagnosisCodeableConcept": {
          "coding": [ {
            "system": "http://hl7.org/fhir/sid/icd-10-cm",
            "code": "W01.0XXA"
          } ]
        },
        "onAdmission": {
          "coding": [ {
            "system": "https://www.cms.gov/Medicare/Medicare-Fee-for-Service-Payment/HospitalAcqCond/Coding",
            "code": "N"
          } ]
        }
      } ],
      "insurance": [ {
        "sequence": 1,
        "focal": true,
        "coverage": {
          "reference": "Coverage/coverage-1"
        }
      } ],
      "item": [ {
        "sequence": 1,
        "diagnosisSequence": [ 1, 2 ],
        "productOrService": {
          "coding": [ {
            "system": "http://terminology.hl7.org/CodeSystem/ex-USCLS",
            "code": "1101"
          } ]
        },
        "encounter": [ {
          "reference": "Encounter/5bf75f51-6351-461a-82cf-8eef7fd5bad5"
        } ]
      } ]
    },
    "request": {
      "method": "PUT",
      "url": "Claim/499e8750-f9ed-4fbb-805a-b983baabd821"
    }
  }, {
    "fullUrl": "https://madie.cms.gov/Claim/20922af3-a616-4562-8e2d-e7bbd6cd65ae",
    "resource": {
      "resourceType": "Claim",
      "id": "20922af3-a616-4562-8e2d-e7bbd6cd65ae",
      "meta": {
        "profile": [ "http://hl7.org/fhir/us/qicore/StructureDefinition/qicore-claim" ]
      },
      "status": "active",
      "type": {
        "coding": [ {
          "system": "http://terminology.hl7.org/CodeSystem/claim-type",
          "code": "institutional"
        } ]
      },
      "use": "claim",
      "patient": {
        "reference": "Patient/d305cce9-ad3c-4259-9f9d-6026974fa847"
      },
      "billablePeriod": {
        "start": "2026-11-09",
        "end": "2026-11-13"
      },
      "created": "2026-11-13",
      "provider": {
        "reference": "Practitioner/practitioner-1"
      },
      "priority": {
        "coding": [ {
          "code": "normal"
        } ]
      },
      "diagnosis": [ {
        "sequence": 2,
        "diagnosisCodeableConcept": {
          "coding": [ {
            "system": "http://hl7.org/fhir/sid/icd-10-cm",
            "code": "S01.02XA"
          } ]
        },
        "onAdmission": {
          "coding": [ {
            "system": "https://www.cms.gov/Medicare/Medicare-Fee-for-Service-Payment/HospitalAcqCond/Coding",
            "code": "U"
          } ]
        }
      } ],
      "insurance": [ {
        "sequence": 1,
        "focal": true,
        "coverage": {
          "reference": "Coverage/coverage-1"
        }
      } ],
      "item": [ {
        "sequence": 1,
        "diagnosisSequence": [ 1, 2 ],
        "productOrService": {
          "coding": [ {
            "system": "http://terminology.hl7.org/CodeSystem/ex-USCLS",
            "code": "1101"
          } ]
        },
        "encounter": [ {
          "reference": "Encounter/5bf75f51-6351-461a-82cf-8eef7fd5bad5"
        } ]
      } ]
    },
    "request": {
      "method": "PUT",
      "url": "Claim/20922af3-a616-4562-8e2d-e7bbd6cd65ae"
    }
  }, {
    "fullUrl": "https://madie.cms.gov/Practitioner/ab04f4fd-cf12-4ec8-98a5-27f75b9ae864",
    "resource": {
      "resourceType": "Practitioner",
      "id": "ab04f4fd-cf12-4ec8-98a5-27f75b9ae864",
      "identifier": [ {
        "system": "http://www.cms.gov/identifiers/pracitioners",
        "value": "P12345"
      } ],
      "name": [ {
        "use": "official",
        "family": "Smith",
        "given": [ "John" ]
      } ],
      "qualification": [ {
        "identifier": [ {
          "system": "http://hl7.org/fhir/sid/us-npi",
          "value": "1234567890"
        } ],
        "code": {
          "coding": [ {
            "system": "http://terminology.hl7.org/CodeSystem/v2-0203",
            "code": "MD",
            "display": "Medical License number"
          } ]
        }
      } ]
    },
    "request": {
      "method": "PUT",
      "url": "Practitioner/ab04f4fd-cf12-4ec8-98a5-27f75b9ae864"
    }
  }, {
    "fullUrl": "https://madie.cms.gov/Coverage/b48dbb61-02e7-4360-b686-82d09cbfc76c",
    "resource": {
      "resourceType": "Coverage",
      "id": "b48dbb61-02e7-4360-b686-82d09cbfc76c",
      "status": "active",
      "beneficiary": {
        "reference": "Patient/d305cce9-ad3c-4259-9f9d-6026974fa847"
      },
      "payor": [ {
        "reference": "Organization/fe65851e-1065-4595-98ad-5aef08a207fe"
      } ]
    },
    "request": {
      "method": "PUT",
      "url": "Coverage/b48dbb61-02e7-4360-b686-82d09cbfc76c"
    }
  }, {
    "fullUrl": "https://madie.cms.gov/Organization/fe65851e-1065-4595-98ad-5aef08a207fe",
    "resource": {
      "resourceType": "Organization",
      "id": "fe65851e-1065-4595-98ad-5aef08a207fe",
      "identifier": [ {
        "system": "http://cms.gov/insurance-ids",
        "value": "AET12345"
      } ],
      "type": [ {
        "coding": [ {
          "system": "http://terminology.hl7.org/CodeSystem/organization-type",
          "code": "prov",
          "display": "Healthcare Provider"
        } ]
      } ],
      "name": "Aetna Insurance",
      "telecom": [ {
        "system": "phone",
        "value": "+1-800-123-4567"
      } ],
      "address": [ {
        "line": [ "123 Main Street" ],
        "city": "Cityville",
        "state": "CA",
        "postalCode": "12345",
        "country": "USA"
      } ]
    },
    "request": {
      "method": "PUT",
      "url": "Organization/fe65851e-1065-4595-98ad-5aef08a207fe"
    }
  }, {
    "fullUrl": "https://madie.cms.gov/MeasureReport/5e21c71f-c174-4f9c-8f35-aa046b6f6fb1",
    "resource": {
      "resourceType": "MeasureReport",
      "id": "5e21c71f-c174-4f9c-8f35-aa046b6f6fb1",
      "meta": {
        "profile": [ "http://hl7.org/fhir/us/cqfmeasures/StructureDefinition/test-case-cqfm" ]
      },
      "contained": [ {
        "resourceType": "Parameters",
        "id": "31da343d-fef1-4e1a-aa67-e7073680b457-parameters",
        "parameter": [ {
          "name": "subject",
          "valueString": "d305cce9-ad3c-4259-9f9d-6026974fa847"
        } ]
      } ],
      "extension": [ {
        "url": "http://hl7.org/fhir/StructureDefinition/cqf-inputParameters",
        "valueReference": {
          "reference": "#31da343d-fef1-4e1a-aa67-e7073680b457-parameters"
        }
      }, {
        "url": "http://hl7.org/fhir/us/cqfmeasures/StructureDefinition/cqfm-testCaseDescription",
        "valueMarkdown": "Encounter with a fall and mod injury NPOA"
      } ],
      "modifierExtension": [ {
        "url": "http://hl7.org/fhir/us/cqfmeasures/StructureDefinition/cqfm-isTestCase",
        "valueBoolean": true
      } ],
      "status": "complete",
      "type": "individual",
      "measure": "https://madie.cms.gov/Measure/CMS1017FHIRHHFI",
      "period": {
        "start": "2026-01-01",
        "end": "2026-12-31"
      },
      "group": [ {
        "id": "Group_1",
        "population": [ {
          "id": "InitialPopulation_1",
          "code": {
            "coding": [ {
              "system": "http://terminology.hl7.org/CodeSystem/measure-population",
              "code": "initial-population",
              "display": "Initial Population"
            } ]
          },
          "count": 1
        }, {
          "id": "Denominator_1",
          "code": {
            "coding": [ {
              "system": "http://terminology.hl7.org/CodeSystem/measure-population",
              "code": "denominator",
              "display": "Denominator"
            } ]
          },
          "count": 1
        }, {
          "id": "DenominatorExclusion_1",
          "code": {
            "coding": [ {
              "system": "http://terminology.hl7.org/CodeSystem/measure-population",
              "code": "denominator-exclusion",
              "display": "Denominator Exclusion"
            } ]
          },
          "count": 0
        }, {
          "id": "Numerator_1",
          "code": {
            "coding": [ {
              "system": "http://terminology.hl7.org/CodeSystem/measure-population",
              "code": "numerator",
              "display": "Numerator"
            } ]
          },
          "count": 1
        }, {
          "id": "NumeratorExclusion_1",
          "code": {
            "coding": [ {
              "system": "http://terminology.hl7.org/CodeSystem/measure-population",
              "code": "numerator-exclusion",
              "display": "Numerator Exclusion"
            } ]
          },
          "count": 0
        }, {
          "id": "MeasureObservation_1_1_1",
          "code": {
            "coding": [ {
              "system": "http://terminology.hl7.org/CodeSystem/measure-population",
              "code": "measure-observation",
              "display": "Measure Observation"
            } ]
          },
          "count": 4
        }, {
          "id": "MeasureObservation_1_2_1",
          "code": {
            "coding": [ {
              "system": "http://terminology.hl7.org/CodeSystem/measure-population",
              "code": "measure-observation",
              "display": "Measure Observation"
            } ]
          },
          "count": 1
        } ],
        "measureScore": {
          "value": 0.0
        }
      } ],
      "evaluatedResource": [ {
        "reference": "Encounter/5bf75f51-6351-461a-82cf-8eef7fd5bad5"
      }, {
        "reference": "Encounter/ef3482f2-d477-45fb-ae95-639d3ffee18e"
      }, {
        "reference": "Condition/cfe8e4bc-99fb-4a8c-b2bd-078b245cf847"
      }, {
        "reference": "Condition/56847da7-b7e1-42a3-8616-c944f06d6e52"
      }, {
        "reference": "Patient/d305cce9-ad3c-4259-9f9d-6026974fa847"
      }, {
        "reference": "Claim/499e8750-f9ed-4fbb-805a-b983baabd821"
      }, {
        "reference": "Claim/20922af3-a616-4562-8e2d-e7bbd6cd65ae"
      }, {
        "reference": "Practitioner/ab04f4fd-cf12-4ec8-98a5-27f75b9ae864"
      }, {
        "reference": "Coverage/b48dbb61-02e7-4360-b686-82d09cbfc76c"
      }, {
        "reference": "Organization/fe65851e-1065-4595-98ad-5aef08a207fe"
      } ]
    },
    "request": {
      "method": "PUT",
      "url": "MeasureReport/5e21c71f-c174-4f9c-8f35-aa046b6f6fb1"
    }
  } ]
}