{"resourceType":"Bundle","id":"CMS1218FHIRHHRF-bundle","type":"transaction","timestamp":"2025-07-09T09:47:56.737-06:00","entry":[{"resource":{"resourceType":"Library","id":"CMS1218FHIRHHRF","meta":{"profile":["http://hl7.org/fhir/uv/crmi/StructureDefinition/crmi-shareablelibrary","http://hl7.org/fhir/uv/crmi/StructureDefinition/crmi-computablelibrary","http://hl7.org/fhir/uv/crmi/StructureDefinition/crmi-publishablelibrary","http://hl7.org/fhir/uv/crmi/StructureDefinition/crmi-executablelibrary","http://hl7.org/fhir/uv/cql/StructureDefinition/cql-library","http://hl7.org/fhir/uv/cql/StructureDefinition/elm-json-library","http://hl7.org/fhir/uv/cql/StructureDefinition/elm-xml-library"]},"language":"en","text":{"status":"extensions","div":"<div xmlns=\"http://www.w3.org/1999/xhtml\" class=\"col-12\">\n  <table class=\"narrative-table\">\n    <tbody>\n<tr>\n\n<th colspan=\"2\" scope=\"row\" class=\"row-header\">Knowledge Artifact Metadata</th>\n\n</tr>\n\n<tr>\n\n<th scope=\"row\" class=\"row-header\">Name (machine-readable)</th>\n\n<td class=\"content-container\">CMS1218FHIRHHRF</td>\n</tr>\n\n\n<tr>\n\n<th scope=\"row\" class=\"row-header\">Title (human-readable)</th>\n\n<td class=\"content-container\">CMS1218FHIRHHRF</td>\n</tr>\n\n\n\n<tr>\n\n<th scope=\"row\" class=\"row-header\">Status</th>\n\n<td class=\"content-container\">active</td>\n</tr>\n\n\n<tr>\n\n<th scope=\"row\" class=\"row-header\">Experimental</th>\n\n<td class=\"content-container\">false</td>\n</tr>\n\n\n<tr>\n\n<th scope=\"row\" class=\"row-header\">Description</th>\n\n<td class=\"content-container\">CMS1218FHIRHHRF</td>\n</tr>\n\n\n\n\n\n\n\n\n\n\n\n\n\n\n<tr>\n\n<th scope=\"row\" class=\"row-header\">Library Steward</th>\n\n<td class=\"content-container\">Centers for Medicare &amp; Medicaid Services (CMS)</td>\n</tr>\n\n\n\n\n\n\n\n\n<tr>\n  \n  \n  \n  \n  \n<th scope=\"row\" class=\"row-header\">Dependency</th>\n\n  \n  <td class=\"content-container\">\n    \n    <em>Description</em>: Library FHIRHelpers\n    \n    <br/>\n    \n    \n    \n    \n    \n    \n    <em>Resource</em>: https://madie.cms.gov/Library/FHIRHelpers|4.4.000\n    <br/>\n    <em>Canonical URL</em>: <tt>https://madie.cms.gov/Library/FHIRHelpers|4.4.000</tt>\n    \n  </td>\n</tr>\n\n<tr>\n  \n  \n  \n  \n  \n<th scope=\"row\" class=\"row-header\">Dependency</th>\n\n  \n  <td class=\"content-container\">\n    \n    <em>Description</em>: Library QICoreCommon\n    \n    <br/>\n    \n    \n    \n    \n    \n    \n    <em>Resource</em>: https://madie.cms.gov/Library/QICoreCommon|4.0.000\n    <br/>\n    <em>Canonical URL</em>: <tt>https://madie.cms.gov/Library/QICoreCommon|4.0.000</tt>\n    \n  </td>\n</tr>\n\n<tr>\n  \n  \n  \n  \n  \n<th scope=\"row\" class=\"row-header\">Dependency</th>\n\n  \n  <td class=\"content-container\">\n    \n    <em>Description</em>: Library CQMCommon\n    \n    <br/>\n    \n    \n    \n    \n    \n    \n    <em>Resource</em>: https://madie.cms.gov/Library/CQMCommon|4.1.000\n    <br/>\n    <em>Canonical URL</em>: <tt>https://madie.cms.gov/Library/CQMCommon|4.1.000</tt>\n    \n  </td>\n</tr>\n\n<tr>\n  \n  \n  \n  \n  \n<th scope=\"row\" class=\"row-header\">Dependency</th>\n\n  \n  <td class=\"content-container\">\n    \n    <em>Description</em>: Library SDE\n    \n    <br/>\n    \n    \n    \n    \n    \n    \n    <em>Resource</em>: https://madie.cms.gov/Library/SupplementalDataElements|5.1.000\n    <br/>\n    <em>Canonical URL</em>: <tt>https://madie.cms.gov/Library/SupplementalDataElements|5.1.000</tt>\n    \n  </td>\n</tr>\n\n<tr>\n  \n  \n  \n  \n  \n<th scope=\"row\" class=\"row-header\">Dependency</th>\n\n  \n  <td class=\"content-container\">\n    \n    <em>Description</em>: Code system SNOMEDCT\n    \n    <br/>\n    \n    \n    \n    \n    \n    \n    <em>Resource</em>: http://snomed.info/sct\n    <br/>\n    <em>Canonical URL</em>: <tt>http://snomed.info/sct</tt>\n    \n  </td>\n</tr>\n\n<tr>\n  \n  \n  \n  \n  \n<th scope=\"row\" class=\"row-header\">Dependency</th>\n\n  \n  <td class=\"content-container\">\n    \n    <em>Description</em>: Code system LOINC\n    \n    <br/>\n    \n    \n    \n    \n    \n    \n    <em>Resource</em>: http://loinc.org\n    <br/>\n    <em>Canonical URL</em>: <tt>http://loinc.org</tt>\n    \n  </td>\n</tr>\n\n<tr>\n  \n  \n  \n  \n  \n<th scope=\"row\" class=\"row-header\">Dependency</th>\n\n  \n  <td class=\"content-container\">\n    \n    <em>Description</em>: Code system LocationRoles\n    \n    <br/>\n    \n    \n    \n    \n    \n    \n    <em>Resource</em>: http://terminology.hl7.org/CodeSystem/v3-RoleCode\n    <br/>\n    <em>Canonical URL</em>: <tt>http://terminology.hl7.org/CodeSystem/v3-RoleCode</tt>\n    \n  </td>\n</tr>\n\n<tr>\n  \n  \n  \n  \n  \n<th scope=\"row\" class=\"row-header\">Dependency</th>\n\n  \n  <td class=\"content-container\">\n    \n    <em>Description</em>: Value set Elective Inpatient Encounter\n    \n    <br/>\n    \n    \n    \n    \n    \n    \n    <em>Resource</em>: http://cts.nlm.nih.gov/fhir/ValueSet/2.16.840.1.113762.1.4.1248.85\n    <br/>\n    <em>Canonical URL</em>: <tt>http://cts.nlm.nih.gov/fhir/ValueSet/2.16.840.1.113762.1.4.1248.85</tt>\n    \n  </td>\n</tr>\n\n<tr>\n  \n  \n  \n  \n  \n<th scope=\"row\" class=\"row-header\">Dependency</th>\n\n  \n  <td class=\"content-container\">\n    \n    <em>Description</em>: Value set Emergency Department Visit\n    \n    <br/>\n    \n    \n    \n    \n    \n    \n    <em>Resource</em>: http://cts.nlm.nih.gov/fhir/ValueSet/2.16.840.1.113883.3.117.1.7.1.292\n    <br/>\n    <em>Canonical URL</em>: <tt>http://cts.nlm.nih.gov/fhir/ValueSet/2.16.840.1.113883.3.117.1.7.1.292</tt>\n    \n  </td>\n</tr>\n\n<tr>\n  \n  \n  \n  \n  \n<th scope=\"row\" class=\"row-header\">Dependency</th>\n\n  \n  <td class=\"content-container\">\n    \n    <em>Description</em>: Value set Obstetrical Or Pregnancy Related Conditions\n    \n    <br/>\n    \n    \n    \n    \n    \n    \n    <em>Resource</em>: http://cts.nlm.nih.gov/fhir/ValueSet/2.16.840.1.113883.3.117.1.7.1.263\n    <br/>\n    <em>Canonical URL</em>: <tt>http://cts.nlm.nih.gov/fhir/ValueSet/2.16.840.1.113883.3.117.1.7.1.263</tt>\n    \n  </td>\n</tr>\n\n<tr>\n  \n  \n  \n  \n  \n<th scope=\"row\" class=\"row-header\">Dependency</th>\n\n  \n  <td class=\"content-container\">\n    \n    <em>Description</em>: Value set General And Neuraxial Anesthesia\n    \n    <br/>\n    \n    \n    \n    \n    \n    \n    <em>Resource</em>: http://cts.nlm.nih.gov/fhir/ValueSet/2.16.840.1.113762.1.4.1248.208\n    <br/>\n    <em>Canonical URL</em>: <tt>http://cts.nlm.nih.gov/fhir/ValueSet/2.16.840.1.113762.1.4.1248.208</tt>\n    \n  </td>\n</tr>\n\n<tr>\n  \n  \n  \n  \n  \n<th scope=\"row\" class=\"row-header\">Dependency</th>\n\n  \n  <td class=\"content-container\">\n    \n    <em>Description</em>: Value set Albumin Lab Test\n    \n    <br/>\n    \n    \n    \n    \n    \n    \n    <em>Resource</em>: http://cts.nlm.nih.gov/fhir/ValueSet/2.16.840.1.113762.1.4.1248.221\n    <br/>\n    <em>Canonical URL</em>: <tt>http://cts.nlm.nih.gov/fhir/ValueSet/2.16.840.1.113762.1.4.1248.221</tt>\n    \n  </td>\n</tr>\n\n<tr>\n  \n  \n  \n  \n  \n<th scope=\"row\" class=\"row-header\">Dependency</th>\n\n  \n  <td class=\"content-container\">\n    \n    <em>Description</em>: Value set Arterial Blood pH\n    \n    <br/>\n    \n    \n    \n    \n    \n    \n    <em>Resource</em>: http://cts.nlm.nih.gov/fhir/ValueSet/2.16.840.1.113762.1.4.1248.96\n    <br/>\n    <em>Canonical URL</em>: <tt>http://cts.nlm.nih.gov/fhir/ValueSet/2.16.840.1.113762.1.4.1248.96</tt>\n    \n  </td>\n</tr>\n\n<tr>\n  \n  \n  \n  \n  \n<th scope=\"row\" class=\"row-header\">Dependency</th>\n\n  \n  <td class=\"content-container\">\n    \n    <em>Description</em>: Value set Carbon Dioxide Partial Pressure In Arterial Blood\n    \n    <br/>\n    \n    \n    \n    \n    \n    \n    <em>Resource</em>: http://cts.nlm.nih.gov/fhir/ValueSet/2.16.840.1.113762.1.4.1248.95\n    <br/>\n    <em>Canonical URL</em>: <tt>http://cts.nlm.nih.gov/fhir/ValueSet/2.16.840.1.113762.1.4.1248.95</tt>\n    \n  </td>\n</tr>\n\n<tr>\n  \n  \n  \n  \n  \n<th scope=\"row\" class=\"row-header\">Dependency</th>\n\n  \n  <td class=\"content-container\">\n    \n    <em>Description</em>: Value set Hematocrit Lab Test\n    \n    <br/>\n    \n    \n    \n    \n    \n    \n    <em>Resource</em>: http://cts.nlm.nih.gov/fhir/ValueSet/2.16.840.1.113762.1.4.1045.114\n    <br/>\n    <em>Canonical URL</em>: <tt>http://cts.nlm.nih.gov/fhir/ValueSet/2.16.840.1.113762.1.4.1045.114</tt>\n    \n  </td>\n</tr>\n\n<tr>\n  \n  \n  \n  \n  \n<th scope=\"row\" class=\"row-header\">Dependency</th>\n\n  \n  <td class=\"content-container\">\n    \n    <em>Description</em>: Value set Hemoglobin Lab Test\n    \n    <br/>\n    \n    \n    \n    \n    \n    \n    <em>Resource</em>: http://cts.nlm.nih.gov/fhir/ValueSet/2.16.840.1.113762.1.4.1248.219\n    <br/>\n    <em>Canonical URL</em>: <tt>http://cts.nlm.nih.gov/fhir/ValueSet/2.16.840.1.113762.1.4.1248.219</tt>\n    \n  </td>\n</tr>\n\n<tr>\n  \n  \n  \n  \n  \n<th scope=\"row\" class=\"row-header\">Dependency</th>\n\n  \n  <td class=\"content-container\">\n    \n    <em>Description</em>: Value set Sodium Lab Test\n    \n    <br/>\n    \n    \n    \n    \n    \n    \n    <em>Resource</em>: http://cts.nlm.nih.gov/fhir/ValueSet/2.16.840.1.113762.1.4.1045.119\n    <br/>\n    <em>Canonical URL</em>: <tt>http://cts.nlm.nih.gov/fhir/ValueSet/2.16.840.1.113762.1.4.1045.119</tt>\n    \n  </td>\n</tr>\n\n<tr>\n  \n  \n  \n  \n  \n<th scope=\"row\" class=\"row-header\">Dependency</th>\n\n  \n  <td class=\"content-container\">\n    \n    <em>Description</em>: Value set Creatinine Lab Test\n    \n    <br/>\n    \n    \n    \n    \n    \n    \n    <em>Resource</em>: http://cts.nlm.nih.gov/fhir/ValueSet/2.16.840.1.113883.3.666.5.2363\n    <br/>\n    <em>Canonical URL</em>: <tt>http://cts.nlm.nih.gov/fhir/ValueSet/2.16.840.1.113883.3.666.5.2363</tt>\n    \n  </td>\n</tr>\n\n<tr>\n  \n  \n  \n  \n  \n<th scope=\"row\" class=\"row-header\">Dependency</th>\n\n  \n  <td class=\"content-container\">\n    \n    <em>Description</em>: Value set White Blood Cells Count Lab Test\n    \n    <br/>\n    \n    \n    \n    \n    \n    \n    <em>Resource</em>: http://cts.nlm.nih.gov/fhir/ValueSet/2.16.840.1.113762.1.4.1045.129\n    <br/>\n    <em>Canonical URL</em>: <tt>http://cts.nlm.nih.gov/fhir/ValueSet/2.16.840.1.113762.1.4.1045.129</tt>\n    \n  </td>\n</tr>\n\n<tr>\n  \n  \n  \n  \n  \n<th scope=\"row\" class=\"row-header\">Dependency</th>\n\n  \n  <td class=\"content-container\">\n    \n    <em>Description</em>: Value set ASA Physical Status Class\n    \n    <br/>\n    \n    \n    \n    \n    \n    \n    <em>Resource</em>: http://cts.nlm.nih.gov/fhir/ValueSet/2.16.840.1.113762.1.4.1248.217\n    <br/>\n    <em>Canonical URL</em>: <tt>http://cts.nlm.nih.gov/fhir/ValueSet/2.16.840.1.113762.1.4.1248.217</tt>\n    \n  </td>\n</tr>\n\n<tr>\n  \n  \n  \n  \n  \n<th scope=\"row\" class=\"row-header\">Dependency</th>\n\n  \n  <td class=\"content-container\">\n    \n    <em>Description</em>: Value set Bicarbonate Lab Test\n    \n    <br/>\n    \n    \n    \n    \n    \n    \n    <em>Resource</em>: http://cts.nlm.nih.gov/fhir/ValueSet/2.16.840.1.113762.1.4.1045.139\n    <br/>\n    <em>Canonical URL</em>: <tt>http://cts.nlm.nih.gov/fhir/ValueSet/2.16.840.1.113762.1.4.1045.139</tt>\n    \n  </td>\n</tr>\n\n<tr>\n  \n  \n  \n  \n  \n<th scope=\"row\" class=\"row-header\">Dependency</th>\n\n  \n  <td class=\"content-container\">\n    \n    <em>Description</em>: Value set Bilirubin Lab Test\n    \n    <br/>\n    \n    \n    \n    \n    \n    \n    <em>Resource</em>: http://cts.nlm.nih.gov/fhir/ValueSet/2.16.840.1.113762.1.4.1248.223\n    <br/>\n    <em>Canonical URL</em>: <tt>http://cts.nlm.nih.gov/fhir/ValueSet/2.16.840.1.113762.1.4.1248.223</tt>\n    \n  </td>\n</tr>\n\n<tr>\n  \n  \n  \n  \n  \n<th scope=\"row\" class=\"row-header\">Dependency</th>\n\n  \n  <td class=\"content-container\">\n    \n    <em>Description</em>: Value set Oxygen Partial Pressure In Arterial Blood\n    \n    <br/>\n    \n    \n    \n    \n    \n    \n    <em>Resource</em>: http://cts.nlm.nih.gov/fhir/ValueSet/2.16.840.1.113762.1.4.1248.94\n    <br/>\n    <em>Canonical URL</em>: <tt>http://cts.nlm.nih.gov/fhir/ValueSet/2.16.840.1.113762.1.4.1248.94</tt>\n    \n  </td>\n</tr>\n\n<tr>\n  \n  \n  \n  \n  \n<th scope=\"row\" class=\"row-header\">Dependency</th>\n\n  \n  <td class=\"content-container\">\n    \n    <em>Description</em>: Value set Leukocyte Count Lab Test\n    \n    <br/>\n    \n    \n    \n    \n    \n    \n    <em>Resource</em>: http://cts.nlm.nih.gov/fhir/ValueSet/2.16.840.1.113762.1.4.1248.222\n    <br/>\n    <em>Canonical URL</em>: <tt>http://cts.nlm.nih.gov/fhir/ValueSet/2.16.840.1.113762.1.4.1248.222</tt>\n    \n  </td>\n</tr>\n\n<tr>\n  \n  \n  \n  \n  \n<th scope=\"row\" class=\"row-header\">Dependency</th>\n\n  \n  <td class=\"content-container\">\n    \n    <em>Description</em>: Value set Intubation\n    \n    <br/>\n    \n    \n    \n    \n    \n    \n    <em>Resource</em>: http://cts.nlm.nih.gov/fhir/ValueSet/2.16.840.1.113762.1.4.1248.179\n    <br/>\n    <em>Canonical URL</em>: <tt>http://cts.nlm.nih.gov/fhir/ValueSet/2.16.840.1.113762.1.4.1248.179</tt>\n    \n  </td>\n</tr>\n\n<tr>\n  \n  \n  \n  \n  \n<th scope=\"row\" class=\"row-header\">Dependency</th>\n\n  \n  <td class=\"content-container\">\n    \n    <em>Description</em>: Value set Anesthesia Requiring Monitored Care\n    \n    <br/>\n    \n    \n    \n    \n    \n    \n    <em>Resource</em>: http://cts.nlm.nih.gov/fhir/ValueSet/2.16.840.1.113762.1.4.1248.255\n    <br/>\n    <em>Canonical URL</em>: <tt>http://cts.nlm.nih.gov/fhir/ValueSet/2.16.840.1.113762.1.4.1248.255</tt>\n    \n  </td>\n</tr>\n\n<tr>\n  \n  \n  \n  \n  \n<th scope=\"row\" class=\"row-header\">Dependency</th>\n\n  \n  <td class=\"content-container\">\n    \n    <em>Description</em>: Value set Mechanical Ventilation\n    \n    <br/>\n    \n    \n    \n    \n    \n    \n    <em>Resource</em>: http://cts.nlm.nih.gov/fhir/ValueSet/2.16.840.1.113762.1.4.1248.107\n    <br/>\n    <em>Canonical URL</em>: <tt>http://cts.nlm.nih.gov/fhir/ValueSet/2.16.840.1.113762.1.4.1248.107</tt>\n    \n  </td>\n</tr>\n\n<tr>\n  \n  \n  \n  \n  \n<th scope=\"row\" class=\"row-header\">Dependency</th>\n\n  \n  <td class=\"content-container\">\n    \n    <em>Description</em>: Value set Non Invasive Oxygen Therapy By Nasal Cannula Or Mask\n    \n    <br/>\n    \n    \n    \n    \n    \n    \n    <em>Resource</em>: http://cts.nlm.nih.gov/fhir/ValueSet/2.16.840.1.113762.1.4.1248.209\n    <br/>\n    <em>Canonical URL</em>: <tt>http://cts.nlm.nih.gov/fhir/ValueSet/2.16.840.1.113762.1.4.1248.209</tt>\n    \n  </td>\n</tr>\n\n<tr>\n  \n  \n  \n  \n  \n<th scope=\"row\" class=\"row-header\">Dependency</th>\n\n  \n  <td class=\"content-container\">\n    \n    <em>Description</em>: Value set Non Invasive Oxygen Therapy\n    \n    <br/>\n    \n    \n    \n    \n    \n    \n    <em>Resource</em>: http://cts.nlm.nih.gov/fhir/ValueSet/2.16.840.1.113762.1.4.1248.213\n    <br/>\n    <em>Canonical URL</em>: <tt>http://cts.nlm.nih.gov/fhir/ValueSet/2.16.840.1.113762.1.4.1248.213</tt>\n    \n  </td>\n</tr>\n\n<tr>\n  \n  \n  \n  \n  \n<th scope=\"row\" class=\"row-header\">Dependency</th>\n\n  \n  <td class=\"content-container\">\n    \n    <em>Description</em>: Value set Blood Urea Nitrogen Lab Test\n    \n    <br/>\n    \n    \n    \n    \n    \n    \n    <em>Resource</em>: http://cts.nlm.nih.gov/fhir/ValueSet/2.16.840.1.113762.1.4.1248.218\n    <br/>\n    <em>Canonical URL</em>: <tt>http://cts.nlm.nih.gov/fhir/ValueSet/2.16.840.1.113762.1.4.1248.218</tt>\n    \n  </td>\n</tr>\n\n<tr>\n  \n  \n  \n  \n  \n<th scope=\"row\" class=\"row-header\">Dependency</th>\n\n  \n  <td class=\"content-container\">\n    \n    <em>Description</em>: Value set Degenerative Neurological Disorder\n    \n    <br/>\n    \n    \n    \n    \n    \n    \n    <em>Resource</em>: http://cts.nlm.nih.gov/fhir/ValueSet/2.16.840.1.113762.1.4.1248.241\n    <br/>\n    <em>Canonical URL</em>: <tt>http://cts.nlm.nih.gov/fhir/ValueSet/2.16.840.1.113762.1.4.1248.241</tt>\n    \n  </td>\n</tr>\n\n<tr>\n  \n  \n  \n  \n  \n<th scope=\"row\" class=\"row-header\">Dependency</th>\n\n  \n  <td class=\"content-container\">\n    \n    <em>Description</em>: Value set Head, Neck, And Thoracic Surgeries With High Risk Airway Compromise\n    \n    <br/>\n    \n    \n    \n    \n    \n    \n    <em>Resource</em>: http://cts.nlm.nih.gov/fhir/ValueSet/2.16.840.1.113762.1.4.1248.251\n    <br/>\n    <em>Canonical URL</em>: <tt>http://cts.nlm.nih.gov/fhir/ValueSet/2.16.840.1.113762.1.4.1248.251</tt>\n    \n  </td>\n</tr>\n\n<tr>\n  \n  \n  \n  \n  \n<th scope=\"row\" class=\"row-header\">Dependency</th>\n\n  \n  <td class=\"content-container\">\n    \n    <em>Description</em>: Value set Neuromuscular Disorder\n    \n    <br/>\n    \n    \n    \n    \n    \n    \n    <em>Resource</em>: http://cts.nlm.nih.gov/fhir/ValueSet/2.16.840.1.113762.1.4.1248.239\n    <br/>\n    <em>Canonical URL</em>: <tt>http://cts.nlm.nih.gov/fhir/ValueSet/2.16.840.1.113762.1.4.1248.239</tt>\n    \n  </td>\n</tr>\n\n<tr>\n  \n  \n  \n  \n  \n<th scope=\"row\" class=\"row-header\">Dependency</th>\n\n  \n  <td class=\"content-container\">\n    \n    <em>Description</em>: Value set Acute Respiratory Failure\n    \n    <br/>\n    \n    \n    \n    \n    \n    \n    <em>Resource</em>: http://cts.nlm.nih.gov/fhir/ValueSet/2.16.840.1.113762.1.4.1248.88\n    <br/>\n    <em>Canonical URL</em>: <tt>http://cts.nlm.nih.gov/fhir/ValueSet/2.16.840.1.113762.1.4.1248.88</tt>\n    \n  </td>\n</tr>\n\n<tr>\n  \n  \n  \n  \n  \n<th scope=\"row\" class=\"row-header\">Dependency</th>\n\n  \n  <td class=\"content-container\">\n    \n    <em>Description</em>: Value set Present On Admission Or Clinically Undetermined\n    \n    <br/>\n    \n    \n    \n    \n    \n    \n    <em>Resource</em>: http://cts.nlm.nih.gov/fhir/ValueSet/2.16.840.1.113762.1.4.1147.197\n    <br/>\n    <em>Canonical URL</em>: <tt>http://cts.nlm.nih.gov/fhir/ValueSet/2.16.840.1.113762.1.4.1147.197</tt>\n    \n  </td>\n</tr>\n\n<tr>\n  \n  \n  \n  \n  \n<th scope=\"row\" class=\"row-header\">Dependency</th>\n\n  \n  <td class=\"content-container\">\n    \n    <em>Description</em>: Value set Tracheostomy Diagnoses\n    \n    <br/>\n    \n    \n    \n    \n    \n    \n    <em>Resource</em>: http://cts.nlm.nih.gov/fhir/ValueSet/2.16.840.1.113762.1.4.1248.89\n    <br/>\n    <em>Canonical URL</em>: <tt>http://cts.nlm.nih.gov/fhir/ValueSet/2.16.840.1.113762.1.4.1248.89</tt>\n    \n  </td>\n</tr>\n\n<tr>\n  \n  \n  \n  \n  \n<th scope=\"row\" class=\"row-header\">Dependency</th>\n\n  \n  <td class=\"content-container\">\n    \n    <em>Description</em>: Value set Tracheostomy Procedures\n    \n    <br/>\n    \n    \n    \n    \n    \n    \n    <em>Resource</em>: http://cts.nlm.nih.gov/fhir/ValueSet/2.16.840.1.113762.1.4.1248.181\n    <br/>\n    <em>Canonical URL</em>: <tt>http://cts.nlm.nih.gov/fhir/ValueSet/2.16.840.1.113762.1.4.1248.181</tt>\n    \n  </td>\n</tr>\n\n<tr>\n  \n  \n  \n  \n  \n<th scope=\"row\" class=\"row-header\">Dependency</th>\n\n  \n  <td class=\"content-container\">\n    \n    <em>Description</em>: Value set Aspartate transaminase Lab Test\n    \n    <br/>\n    \n    \n    \n    \n    \n    \n    <em>Resource</em>: http://cts.nlm.nih.gov/fhir/ValueSet/2.16.840.1.113762.1.4.1248.224\n    <br/>\n    <em>Canonical URL</em>: <tt>http://cts.nlm.nih.gov/fhir/ValueSet/2.16.840.1.113762.1.4.1248.224</tt>\n    \n  </td>\n</tr>\n\n<tr>\n  \n  \n  \n  \n  \n<th scope=\"row\" class=\"row-header\">Dependency</th>\n\n  \n  <td class=\"content-container\">\n    \n    <em>Description</em>: Value set Platelet Count Lab Test\n    \n    <br/>\n    \n    \n    \n    \n    \n    \n    <em>Resource</em>: http://cts.nlm.nih.gov/fhir/ValueSet/2.16.840.1.113762.1.4.1045.127\n    <br/>\n    <em>Canonical URL</em>: <tt>http://cts.nlm.nih.gov/fhir/ValueSet/2.16.840.1.113762.1.4.1045.127</tt>\n    \n  </td>\n</tr>\n\n\n\n\n\n\n\n\n\n\n<tr>\n\n<th colspan=\"2\" scope=\"row\" class=\"row-header\">Library Metadata</th>\n\n</tr>\n\n<tr>\n\n<th scope=\"row\" class=\"row-header\">Identifier</th>\n\n<td class=\"content-container\">org.hl7.fhir.r5.model.Identifier@2dd90a5b</td>\n</tr>\n\n\n<tr>\n\n<th scope=\"row\" class=\"row-header\">Version Number</th>\n\n<td class=\"content-container\">0.2.000</td>\n</tr>\n\n\n<tr>\n\n<th scope=\"row\" class=\"row-header\">Library Type</th>\n\n<td class=\"content-container\">[http://terminology.hl7.org/CodeSystem/library-type#logic-library]</td>\n</tr>\n\n\n\n\n<tr>\n  <th scope=\"row\" class=\"row-header\">Data Requirement</th>\n  <td class=\"content-container\">\n    <em>Type</em>: Encounter\n    <br/>\n  \n    <em>Profile(s)</em>: \n  \n    http://hl7.org/fhir/us/qicore/StructureDefinition/qicore-encounter\n    <br/>        \n  \n   \n   \n    <em>Must Support Elements</em>: type, status, status.value, period, id, id.value\n    <br/>\n   \n  \n    <em>Code Filter(s)</em>: \n    <br/>\n  \n  \n    <span class=\"tab-one\"><em>Path</em>: type</span>\n    <br/>\n  \n  \n  \n    <span class=\"tab-one\"><em>ValueSet</em>:</span> http://cts.nlm.nih.gov/fhir/ValueSet/2.16.840.1.113883.3.117.1.7.1.292\n    <br/> \n  \n  \n  \n   \n  </td>\n</tr>\n\n<tr>\n  <th scope=\"row\" class=\"row-header\">Data Requirement</th>\n  <td class=\"content-container\">\n    <em>Type</em>: Observation\n    <br/>\n  \n    <em>Profile(s)</em>: \n  \n    http://hl7.org/fhir/us/qicore/StructureDefinition/qicore-observation-screening-assessment\n    <br/>        \n  \n   \n   \n    <em>Must Support Elements</em>: code, status, status.value, value\n    <br/>\n   \n  \n    <em>Code Filter(s)</em>: \n    <br/>\n  \n  \n    <span class=\"tab-one\"><em>Path</em>: code</span>\n    <br/>\n  \n  \n  \n  \n    <span class=\"tab-one\"><em>Code(s)</em>: \n    \n      \n      http://loinc.org#97816-3: 'American society of anesthesiologists morbidity state'\n      \n    \n    </span>\n    <br/>\n  \n  \n   \n  </td>\n</tr>\n\n<tr>\n  <th scope=\"row\" class=\"row-header\">Data Requirement</th>\n  <td class=\"content-container\">\n    <em>Type</em>: Procedure\n    <br/>\n  \n    <em>Profile(s)</em>: \n  \n    http://hl7.org/fhir/us/qicore/StructureDefinition/qicore-procedure\n    <br/>        \n  \n   \n   \n    <em>Must Support Elements</em>: code, id, id.value\n    <br/>\n   \n  \n    <em>Code Filter(s)</em>: \n    <br/>\n  \n  \n    <span class=\"tab-one\"><em>Path</em>: code</span>\n    <br/>\n  \n  \n  \n    <span class=\"tab-one\"><em>ValueSet</em>:</span> http://cts.nlm.nih.gov/fhir/ValueSet/2.16.840.1.113762.1.4.1248.255\n    <br/> \n  \n  \n  \n   \n  </td>\n</tr>\n\n<tr>\n  <th scope=\"row\" class=\"row-header\">Data Requirement</th>\n  <td class=\"content-container\">\n    <em>Type</em>: Procedure\n    <br/>\n  \n    <em>Profile(s)</em>: \n  \n    http://hl7.org/fhir/us/qicore/StructureDefinition/qicore-procedure\n    <br/>        \n  \n   \n   \n    <em>Must Support Elements</em>: code, id, id.value\n    <br/>\n   \n  \n    <em>Code Filter(s)</em>: \n    <br/>\n  \n  \n    <span class=\"tab-one\"><em>Path</em>: code</span>\n    <br/>\n  \n  \n  \n    <span class=\"tab-one\"><em>ValueSet</em>:</span> http://cts.nlm.nih.gov/fhir/ValueSet/2.16.840.1.113762.1.4.1248.208\n    <br/> \n  \n  \n  \n   \n  </td>\n</tr>\n\n<tr>\n  <th scope=\"row\" class=\"row-header\">Data Requirement</th>\n  <td class=\"content-container\">\n    <em>Type</em>: Procedure\n    <br/>\n  \n    <em>Profile(s)</em>: \n  \n    http://hl7.org/fhir/us/qicore/StructureDefinition/qicore-procedure\n    <br/>        \n  \n   \n   \n    <em>Must Support Elements</em>: code, id, id.value\n    <br/>\n   \n  \n    <em>Code Filter(s)</em>: \n    <br/>\n  \n  \n    <span class=\"tab-one\"><em>Path</em>: code</span>\n    <br/>\n  \n  \n  \n    <span class=\"tab-one\"><em>ValueSet</em>:</span> http://cts.nlm.nih.gov/fhir/ValueSet/2.16.840.1.113762.1.4.1248.209\n    <br/> \n  \n  \n  \n   \n  </td>\n</tr>\n\n<tr>\n  <th scope=\"row\" class=\"row-header\">Data Requirement</th>\n  <td class=\"content-container\">\n    <em>Type</em>: Procedure\n    <br/>\n  \n    <em>Profile(s)</em>: \n  \n    http://hl7.org/fhir/us/qicore/StructureDefinition/qicore-procedure\n    <br/>        \n  \n   \n   \n    <em>Must Support Elements</em>: status, status.value, id, id.value, code, performed\n    <br/>\n   \n   \n  </td>\n</tr>\n\n<tr>\n  <th scope=\"row\" class=\"row-header\">Data Requirement</th>\n  <td class=\"content-container\">\n    <em>Type</em>: Observation\n    <br/>\n  \n    <em>Profile(s)</em>: \n  \n    http://hl7.org/fhir/us/core/StructureDefinition/us-core-bmi\n    <br/>        \n  \n   \n   \n    <em>Must Support Elements</em>: code, effective, value, status, status.value\n    <br/>\n   \n  \n    <em>Code Filter(s)</em>: \n    <br/>\n  \n  \n    <span class=\"tab-one\"><em>Path</em>: code</span>\n    <br/>\n  \n  \n  \n  \n    <span class=\"tab-one\"><em>Code(s)</em>: \n    \n      \n      http://loinc.org#39156-5: 'Body mass index (BMI) [Ratio]'\n      \n    \n    </span>\n    <br/>\n  \n  \n   \n  </td>\n</tr>\n\n<tr>\n  <th scope=\"row\" class=\"row-header\">Data Requirement</th>\n  <td class=\"content-container\">\n    <em>Type</em>: Observation\n    <br/>\n  \n    <em>Profile(s)</em>: \n  \n    http://hl7.org/fhir/us/qicore/StructureDefinition/qicore-observation-lab\n    <br/>        \n  \n   \n   \n    <em>Must Support Elements</em>: code\n    <br/>\n   \n  \n    <em>Code Filter(s)</em>: \n    <br/>\n  \n  \n    <span class=\"tab-one\"><em>Path</em>: code</span>\n    <br/>\n  \n  \n  \n    <span class=\"tab-one\"><em>ValueSet</em>:</span> http://cts.nlm.nih.gov/fhir/ValueSet/2.16.840.1.113762.1.4.1248.213\n    <br/> \n  \n  \n  \n   \n  </td>\n</tr>\n\n\n\n  <tr>\n\n<th colspan=\"2\" scope=\"row\" class=\"row-header\">Library Content</th>\n\n</tr>\n  \n    \n    <tr>\n      <th scope=\"row\" class=\"row-header\">CQL Content</th>\n      <td>\n        <pre style=\"border: none;\" class=\"content-container highlight language-cql\"><code class=\"language-cql\">library CMS1218FHIRHHRF version '0.2.000'\r\n\r\nusing QICore version '6.0.0'\r\n\r\ninclude FHIRHelpers version '4.4.000' called FHIRHelpers\r\ninclude SupplementalDataElements version '5.1.000' called SDE\r\ninclude CQMCommon version '4.1.000' called CQMCommon\r\ninclude QICoreCommon version '4.0.000' called QICoreCommon\r\n\r\ncodesystem &quot;LOINC&quot;: 'http://loinc.org'\r\ncodesystem &quot;SNOMEDCT&quot;: 'http://snomed.info/sct'\r\ncodesystem &quot;LocationRoles&quot;: 'http://terminology.hl7.org/CodeSystem/v3-RoleCode'\r\n\r\nvalueset &quot;Acute Respiratory Failure&quot;: 'http://cts.nlm.nih.gov/fhir/ValueSet/2.16.840.1.113762.1.4.1248.88'\r\nvalueset &quot;Albumin Lab Test&quot;: 'http://cts.nlm.nih.gov/fhir/ValueSet/2.16.840.1.113762.1.4.1248.221'\r\nvalueset &quot;Anesthesia Requiring Monitored Care&quot;: 'http://cts.nlm.nih.gov/fhir/ValueSet/2.16.840.1.113762.1.4.1248.255'\r\nvalueset &quot;Arterial Blood pH&quot;: 'http://cts.nlm.nih.gov/fhir/ValueSet/2.16.840.1.113762.1.4.1248.96'\r\nvalueset &quot;ASA Physical Status Class&quot;: 'http://cts.nlm.nih.gov/fhir/ValueSet/2.16.840.1.113762.1.4.1248.217'\r\nvalueset &quot;Aspartate transaminase Lab Test&quot;: 'http://cts.nlm.nih.gov/fhir/ValueSet/2.16.840.1.113762.1.4.1248.224'\r\nvalueset &quot;Bicarbonate Lab Test&quot;: 'http://cts.nlm.nih.gov/fhir/ValueSet/2.16.840.1.113762.1.4.1045.139'\r\nvalueset &quot;Bilirubin Lab Test&quot;: 'http://cts.nlm.nih.gov/fhir/ValueSet/2.16.840.1.113762.1.4.1248.223'\r\nvalueset &quot;Blood Urea Nitrogen Lab Test&quot;: 'http://cts.nlm.nih.gov/fhir/ValueSet/2.16.840.1.113762.1.4.1248.218'\r\nvalueset &quot;Carbon Dioxide Partial Pressure In Arterial Blood&quot;: 'http://cts.nlm.nih.gov/fhir/ValueSet/2.16.840.1.113762.1.4.1248.95'\r\nvalueset &quot;Creatinine Lab Test&quot;: 'http://cts.nlm.nih.gov/fhir/ValueSet/2.16.840.1.113883.3.666.5.2363'\r\nvalueset &quot;Degenerative Neurological Disorder&quot;: 'http://cts.nlm.nih.gov/fhir/ValueSet/2.16.840.1.113762.1.4.1248.241'\r\nvalueset &quot;Elective Inpatient Encounter&quot;: 'http://cts.nlm.nih.gov/fhir/ValueSet/2.16.840.1.113762.1.4.1248.85'\r\nvalueset &quot;Emergency Department Visit&quot;: 'http://cts.nlm.nih.gov/fhir/ValueSet/2.16.840.1.113883.3.117.1.7.1.292'\r\nvalueset &quot;General And Neuraxial Anesthesia&quot;: 'http://cts.nlm.nih.gov/fhir/ValueSet/2.16.840.1.113762.1.4.1248.208'\r\nvalueset &quot;Head And Neck Surgeries With High Risk Airway Compromise&quot;: 'http://cts.nlm.nih.gov/fhir/ValueSet/2.16.840.1.113762.1.4.1248.183'\r\nvalueset &quot;Head, Neck, And Thoracic Surgeries With High Risk Airway Compromise&quot;: 'http://cts.nlm.nih.gov/fhir/ValueSet/2.16.840.1.113762.1.4.1248.251'\r\nvalueset &quot;Hematocrit Lab Test&quot;: 'http://cts.nlm.nih.gov/fhir/ValueSet/2.16.840.1.113762.1.4.1045.114'\r\nvalueset &quot;Hemoglobin Lab Test&quot;: 'http://cts.nlm.nih.gov/fhir/ValueSet/2.16.840.1.113762.1.4.1248.219'\r\nvalueset &quot;Intubation&quot;: 'http://cts.nlm.nih.gov/fhir/ValueSet/2.16.840.1.113762.1.4.1248.179'\r\nvalueset &quot;Leukocyte Count Lab Test&quot;: 'http://cts.nlm.nih.gov/fhir/ValueSet/2.16.840.1.113762.1.4.1248.222'\r\nvalueset &quot;Mechanical Ventilation&quot;: 'http://cts.nlm.nih.gov/fhir/ValueSet/2.16.840.1.113762.1.4.1248.107'\r\nvalueset &quot;Neuromuscular Disorder&quot;: 'http://cts.nlm.nih.gov/fhir/ValueSet/2.16.840.1.113762.1.4.1248.239'\r\nvalueset &quot;Non Invasive Oxygen Therapy&quot;: 'http://cts.nlm.nih.gov/fhir/ValueSet/2.16.840.1.113762.1.4.1248.213'\r\nvalueset &quot;Non Invasive Oxygen Therapy By Nasal Cannula Or Mask&quot;: 'http://cts.nlm.nih.gov/fhir/ValueSet/2.16.840.1.113762.1.4.1248.209'\r\nvalueset &quot;Obstetrical Or Pregnancy Related Conditions&quot;: 'http://cts.nlm.nih.gov/fhir/ValueSet/2.16.840.1.113883.3.117.1.7.1.263'\r\nvalueset &quot;Oxygen Partial Pressure In Arterial Blood&quot;: 'http://cts.nlm.nih.gov/fhir/ValueSet/2.16.840.1.113762.1.4.1248.94'\r\nvalueset &quot;Platelet Count Lab Test&quot;: 'http://cts.nlm.nih.gov/fhir/ValueSet/2.16.840.1.113762.1.4.1045.127'\r\nvalueset &quot;Present On Admission Or Clinically Undetermined&quot;: 'http://cts.nlm.nih.gov/fhir/ValueSet/2.16.840.1.113762.1.4.1147.197'\r\nvalueset &quot;Procedural Hospital Locations&quot;: 'http://cts.nlm.nih.gov/fhir/ValueSet/2.16.840.1.113762.1.4.1248.216'\r\nvalueset &quot;Smoking Status&quot;: 'http://cts.nlm.nih.gov/fhir/ValueSet/2.16.840.1.113762.1.4.1248.220'\r\nvalueset &quot;Sodium Lab Test&quot;: 'http://cts.nlm.nih.gov/fhir/ValueSet/2.16.840.1.113762.1.4.1045.119'\r\nvalueset &quot;Tracheostomy Diagnoses&quot;: 'http://cts.nlm.nih.gov/fhir/ValueSet/2.16.840.1.113762.1.4.1248.89'\r\nvalueset &quot;Tracheostomy Procedures&quot;: 'http://cts.nlm.nih.gov/fhir/ValueSet/2.16.840.1.113762.1.4.1248.181'\r\nvalueset &quot;White Blood Cells Count Lab Test&quot;: 'http://cts.nlm.nih.gov/fhir/ValueSet/2.16.840.1.113762.1.4.1045.129'\r\n\r\ncode &quot;American society of anesthesiologists morbidity state&quot;: '97816-3' from &quot;LOINC&quot; display 'American society of anesthesiologists morbidity state'\r\ncode &quot;Body mass index (BMI) [Ratio]&quot;: '39156-5' from &quot;LOINC&quot; display 'Body mass index (BMI) [Ratio]'\r\ncode &quot;Body temperature&quot;: '8310-5' from &quot;LOINC&quot; display 'Body temperature'\r\ncode &quot;Elective (qualifier value)&quot;: '103390000' from &quot;SNOMEDCT&quot; display 'Elective (qualifier value)'\r\ncode &quot;Heart rate&quot;: '8867-4' from &quot;LOINC&quot; display 'Heart rate'\r\ncode &quot;Removal of endotracheal tube (procedure)&quot;: '271280005' from &quot;SNOMEDCT&quot; display 'Removal of endotracheal tube (procedure)'\r\ncode &quot;Respiratory rate&quot;: '9279-1' from &quot;LOINC&quot; display 'Respiratory rate'\r\ncode &quot;Systolic blood pressure&quot;: '8480-6' from &quot;LOINC&quot; display 'Systolic blood pressure'\r\ncode &quot;Tobacco smoking status&quot;: '72166-2' from &quot;LOINC&quot; display 'Tobacco smoking status'\r\ncode &quot;ER&quot;: 'ER' from &quot;LocationRoles&quot; display 'Emergency room'\r\n\r\nparameter &quot;Measurement Period&quot; Interval&lt;DateTime&gt;\r\n\r\ncontext Patient\r\n\r\ndefine &quot;Initial Population&quot;:\r\n  &quot;Elective Inpatient Encounter With OR Procedure Within 3 Days&quot;\r\n\r\ndefine &quot;Denominator&quot;:\r\n  &quot;Initial Population&quot;\r\n\r\ndefine &quot;Denominator Exclusions&quot;:\r\n  &quot;Encounter With Degenerative Neurological Disorder&quot;\r\n    union &quot;Encounter With High Risk To Airway Head Neck And Thoracic Surgery&quot;\r\n    union &quot;Encounter With Mechanical Ventilation That Starts More Than One Hour Prior To Start Of First OR Procedure&quot;\r\n    union &quot;Encounter With Neuromuscular Disorder&quot;\r\n    union &quot;Encounter With PaCO2 Greater Than 50 And Arterial pH Less Than 7.30 Within 48 Hours Prior To Start Of First OR Procedure&quot;\r\n    union &quot;Encounter With PaO2 Less Than 50 Within 48 Hours Prior To Start Of First OR Procedure&quot;\r\n    union &quot;Encounter With Principal Diagnosis Of Acute Respiratory Failure&quot;\r\n    union &quot;Encounter With Diagnosis Of Acute Respiratory Failure Present On Admission&quot;\r\n    union &quot;Encounter With Tracheostomy Present On Admission&quot;\r\n    union &quot;Encounter With Tracheostomy Prior To Or On The Same Day Of First OR Procedure&quot;\r\n\r\ndefine &quot;Numerator&quot;:\r\n  &quot;Encounter With Intubation Outside Of Procedural Area Within 30 Days Of End Of First OR Procedure&quot;\r\n    union &quot;Encounter With Mechanical Ventilation Outside Of Procedural Area Within 30 Days Of End Of First OR Procedure And Preceded By Non Invasive Oxygen Therapy&quot;\r\n    union &quot;Encounter With Extubation Outside Of Procedural Area Within 30 Days Of End Of First OR Procedure More Than 48 Hours After End Of Anesthesia&quot;\r\n    union &quot;Encounter With Mechanical Ventilation Within 30 Days Of End Of First OR Procedure And Between 48 And 72 Hours After End Of OR Procedure And Not Preceded By Non Invasive Oxygen Therapy Or Anesthesia&quot;\r\n\r\ndefine &quot;Elective Inpatient Encounter With OR Procedure Within 3 Days&quot;:\r\n  &quot;Elective Inpatient Encounter With Age And Without Obstetrical Condition&quot; ElectiveEncounter\r\n    with [&quot;Procedure&quot;: &quot;General And Neuraxial Anesthesia&quot;] SurgeryWithAnesthesia\r\n      such that SurgeryWithAnesthesia.status = 'completed'\r\n        and SurgeryWithAnesthesia.performed.earliest ( ) during ElectiveEncounter.hospitalizationWithObservationAndOutpatientSurgeryService ( )\r\n        and SurgeryWithAnesthesia.performed.earliest ( ) 3 days or less after start of ElectiveEncounter.hospitalizationWithObservationAndOutpatientSurgeryService ( )\r\n\r\ndefine &quot;Encounter With Degenerative Neurological Disorder&quot;:\r\n  &quot;Elective Inpatient Encounter With OR Procedure Within 3 Days&quot; EncounterWithSurgery\r\n    where EncounterWithSurgery.reasonCode in &quot;Degenerative Neurological Disorder&quot;\r\n      or EncounterWithSurgery.encounterReason ( ).code in &quot;Degenerative Neurological Disorder&quot;\r\n\r\ndefine &quot;Encounter With High Risk To Airway Head Neck And Thoracic Surgery&quot;:\r\n  &quot;Elective Inpatient Encounter With OR Procedure Within 3 Days&quot; EncounterWithSurgery\r\n    with [&quot;Procedure&quot;: &quot;Head, Neck, And Thoracic Surgeries With High Risk Airway Compromise&quot;] HeadNeckProcedures\r\n      such that HeadNeckProcedures.status = 'completed'\r\n        and HeadNeckProcedures.startsDuringHospitalization ( EncounterWithSurgery )\r\n\r\ndefine &quot;Encounter With Mechanical Ventilation That Starts More Than One Hour Prior To Start Of First OR Procedure&quot;:\r\n  &quot;Elective Inpatient Encounter With OR Procedure Within 3 Days&quot; EncounterWithSurgery\r\n    with [&quot;Procedure&quot;: &quot;Mechanical Ventilation&quot;] Ventilation\r\n      such that Ventilation.status = 'completed'\r\n        and Ventilation.performed.toInterval ( ) starts more than 1 hour before start of EncounterWithSurgery.FirstAnesthesiaDuringHospitalization ( ).performed.toInterval ( )\r\n        and Ventilation.startsDuringHospitalization ( EncounterWithSurgery )\r\n\r\ndefine &quot;Encounter With Neuromuscular Disorder&quot;:\r\n  &quot;Elective Inpatient Encounter With OR Procedure Within 3 Days&quot; EncounterWithSurgery\r\n    where EncounterWithSurgery.reasonCode in &quot;Neuromuscular Disorder&quot;\r\n      or EncounterWithSurgery.encounterReason ( ).code in &quot;Neuromuscular Disorder&quot;\r\n\r\ndefine &quot;Encounter With PaCO2 Greater Than 50 And Arterial pH Less Than 7.30 Within 48 Hours Prior To Start Of First OR Procedure&quot;:\r\n  &quot;Elective Inpatient Encounter With OR Procedure Within 3 Days&quot; EncounterWithSurgery\r\n    let FirstProcedureTime: EncounterWithSurgery.FirstAnesthesiaDuringHospitalization ( ).performed.toInterval ( )\r\n    with [&quot;LaboratoryResultObservation&quot;: &quot;Carbon Dioxide Partial Pressure In Arterial Blood&quot;] CarbonDioxide\r\n      such that CarbonDioxide.status in { 'final', 'amended', 'corrected' }\r\n        and CarbonDioxide.effective.toInterval ( ) starts 48 hours or less before start of FirstProcedureTime\r\n        and CarbonDioxide.value as Quantity &gt; 50 'mm[Hg]'\r\n    with [&quot;LaboratoryResultObservation&quot;: &quot;Arterial Blood pH&quot;] BloodpH\r\n      such that BloodpH.status in { 'final', 'amended', 'corrected' }\r\n        and BloodpH.effective.toInterval ( ) starts 48 hours or less before start of FirstProcedureTime\r\n        and BloodpH.value as Quantity &lt; 7.30 '[pH]'\r\n\r\ndefine &quot;Encounter With PaO2 Less Than 50 Within 48 Hours Prior To Start Of First OR Procedure&quot;:\r\n  &quot;Elective Inpatient Encounter With OR Procedure Within 3 Days&quot; EncounterWithSurgery\r\n    let FirstProcedure: EncounterWithSurgery.FirstAnesthesiaDuringHospitalization ( )\r\n    with [&quot;LaboratoryResultObservation&quot;: &quot;Oxygen Partial Pressure In Arterial Blood&quot;] Oxygen\r\n      such that Oxygen.status in { 'final', 'amended', 'corrected' }\r\n        and Oxygen.effective.toInterval ( ) starts 48 hours or less before start of FirstProcedure.performed.toInterval ( )\r\n        and Oxygen.value as Quantity &lt; 50 'mm[Hg]'\r\n\r\ndefine &quot;Encounter With Principal Diagnosis Of Acute Respiratory Failure&quot;:\r\n  &quot;Elective Inpatient Encounter With OR Procedure Within 3 Days&quot; EncounterWithSurgery\r\n    where EncounterWithSurgery.hasPrincipalDiagnosisOf ( &quot;Acute Respiratory Failure&quot; )\r\n\r\ndefine &quot;Encounter With Diagnosis Of Acute Respiratory Failure Present On Admission&quot;:\r\n  &quot;Elective Inpatient Encounter With OR Procedure Within 3 Days&quot; EncounterWithSurgery\r\n    where EncounterWithSurgery.isDiagnosisPresentOnAdmission ( &quot;Acute Respiratory Failure&quot;, &quot;Present On Admission Or Clinically Undetermined&quot; )\r\n\r\ndefine &quot;Encounter With Tracheostomy Present On Admission&quot;:\r\n  &quot;Elective Inpatient Encounter With OR Procedure Within 3 Days&quot; EncounterWithSurgery\r\n    where EncounterWithSurgery.isDiagnosisPresentOnAdmission ( &quot;Tracheostomy Diagnoses&quot;, &quot;Present On Admission Or Clinically Undetermined&quot; )\r\n\r\ndefine &quot;Encounter With Tracheostomy Prior To Or On The Same Day Of First OR Procedure&quot;:\r\n  &quot;Encounter With Tracheostomy Before Day Of First OR Procedure&quot;\r\n    union &quot;Encounter With Tracheostomy Same Day Of First OR Procedure&quot;\r\n\r\ndefine &quot;Encounter With Intubation Outside Of Procedural Area Within 30 Days Of End Of First OR Procedure&quot;:\r\n  &quot;Elective Inpatient Encounter With OR Procedure Within 3 Days&quot; EncounterWithSurgery\r\n    with [&quot;Procedure&quot;: &quot;Intubation&quot;] EndotrachealTubeIn\r\n      such that EndotrachealTubeIn.status = 'completed'\r\n        and EndotrachealTubeIn.starts30DaysOrLessAfterFirstAnesthesia ( EncounterWithSurgery )\r\n        and EndotrachealTubeIn.startsDuringHospitalization ( EncounterWithSurgery )\r\n        and EndotrachealTubeIn.performed.toInterval ( ) starts after end of EndotrachealTubeIn.LatestGeneralAnesthesiaOrMAC ( ).performed.toInterval ( )\r\n        and EncounterWithSurgery.isNotAtProceduralHospitalLocationDuring ( EndotrachealTubeIn.performed.toInterval ( ) )\r\n        and not ( &quot;Intubation During General Anesthesia And MAC&quot;.id contains EndotrachealTubeIn.id )\r\n\r\ndefine &quot;Encounter With Mechanical Ventilation Outside Of Procedural Area Within 30 Days Of End Of First OR Procedure And Preceded By Non Invasive Oxygen Therapy&quot;:\r\n  from\r\n    &quot;Elective Inpatient Encounter With OR Procedure Within 3 Days&quot; EncounterWithSurgery,\r\n    [&quot;Procedure&quot;: &quot;Mechanical Ventilation&quot;] Ventilation,\r\n    &quot;Noninvasive Oxygen Therapy&quot; OxygenSupport\r\n    let VentilationInterval: Ventilation.performed.toInterval ( ),\r\n    LatestAnesthesiaInterval: Ventilation.LatestGeneralAnesthesiaOrMAC ( ).performed.toInterval ( )\r\n    where Ventilation.status = 'completed'\r\n      and Ventilation.starts30DaysOrLessAfterFirstAnesthesia ( EncounterWithSurgery )\r\n      and Ventilation.startsDuringHospitalization ( EncounterWithSurgery )\r\n      and VentilationInterval starts after end of LatestAnesthesiaInterval\r\n      and OxygenSupport.interval ( ) starts during Interval[end of LatestAnesthesiaInterval, start of VentilationInterval]\r\n      and EncounterWithSurgery.isNotAtProceduralHospitalLocationDuring ( VentilationInterval )\r\n    return EncounterWithSurgery\r\n\r\ndefine &quot;Encounter With Extubation Outside Of Procedural Area Within 30 Days Of End Of First OR Procedure More Than 48 Hours After End Of Anesthesia&quot;:\r\n  &quot;Elective Inpatient Encounter With OR Procedure Within 3 Days&quot; EncounterWithSurgery\r\n    with [&quot;Procedure&quot;: &quot;Removal of endotracheal tube (procedure)&quot;] Extubation\r\n      such that Extubation.status = 'completed'\r\n        and Extubation.isDuringHospitalization ( EncounterWithSurgery )\r\n        and Extubation.starts30DaysOrLessAfterFirstAnesthesia ( EncounterWithSurgery )\r\n        and Extubation.performed.toInterval ( ) starts more than 48 hours after end of Extubation.LatestGeneralAnesthesiaOrMAC ( ).performed.toInterval ( )\r\n        and not ( ( &quot;Extubation With Preceding Noninvasive Oxygen&quot;.id contains Extubation.id )\r\n            and not ( &quot;Extubation During General Anesthesia&quot;.id contains Extubation.id )\r\n        )\r\n        and EncounterWithSurgery.isNotAtProceduralHospitalLocation ( )\r\n\r\ndefine &quot;Encounter With Mechanical Ventilation Within 30 Days Of End Of First OR Procedure And Between 48 And 72 Hours After End Of OR Procedure And Not Preceded By Non Invasive Oxygen Therapy Or Anesthesia&quot;:\r\n  &quot;Elective Inpatient Encounter With OR Procedure Within 3 Days&quot; EncounterWithSurgery\r\n    with [&quot;Procedure&quot;: &quot;Mechanical Ventilation&quot;] Ventilation\r\n      such that Ventilation.status = 'completed'\r\n        and Ventilation.performed.toInterval ( ) starts 48 hours or more after end of Ventilation.LatestGeneralAnesthesiaOrMAC ( ).performed.toInterval ( )\r\n        and Ventilation.performed.toInterval ( ) starts 72 hours or less after end of Ventilation.LatestGeneralAnesthesiaOrMAC ( ).performed.toInterval ( )\r\n        and Ventilation.starts30DaysOrLessAfterFirstAnesthesia ( EncounterWithSurgery )\r\n        and Ventilation.startsDuringHospitalization ( EncounterWithSurgery )\r\n        and not ( &quot;Encounter With Mechanical Ventilation Outside Of Procedural Area Within 30 Days Of End Of First OR Procedure And Preceded By Non Invasive Oxygen Therapy&quot;.id contains EncounterWithSurgery.id )\r\n        and EncounterWithSurgery.isNotAtProceduralHospitalLocation ( )\r\n\r\ndefine &quot;Elective Inpatient Encounter With Age 18 And Older Without ED Visit&quot;:\r\n  [&quot;Encounter&quot;: &quot;Elective Inpatient Encounter&quot;] ElectiveEncounter\r\n    where ElectiveEncounter.status = 'finished'\r\n      and ElectiveEncounter.period ends during day of &quot;Measurement Period&quot;\r\n      and ElectiveEncounter.priority is not null implies ElectiveEncounter.priority ~ &quot;Elective (qualifier value)&quot;\r\n      and AgeInYearsAt(date from start of ElectiveEncounter.period) &gt;= 18\r\n      and not exists ( [&quot;Encounter&quot;: &quot;Emergency Department Visit&quot;] EDVisit\r\n          where EDVisit.status = 'finished'\r\n            and EDVisit.period ends 1 hour or less before or on start of ElectiveEncounter.period\r\n      )\r\n\r\ndefine &quot;Elective Inpatient Encounter With Age And Without Obstetrical Condition&quot;:\r\n  &quot;Elective Inpatient Encounter With Age 18 And Older Without ED Visit&quot; ElectiveEncounter\r\n    where not ( ElectiveEncounter.reasonCode in &quot;Obstetrical Or Pregnancy Related Conditions&quot;\r\n        or ElectiveEncounter.encounterReason ( ).code in &quot;Obstetrical Or Pregnancy Related Conditions&quot;\r\n    )\r\n\r\ndefine &quot;Encounter With Tracheostomy Before Day Of First OR Procedure&quot;:\r\n  &quot;Elective Inpatient Encounter With OR Procedure Within 3 Days&quot; EncounterWithSurgery\r\n    let FirstProcedure: EncounterWithSurgery.FirstAnesthesiaDuringHospitalization ( )\r\n    with [&quot;Procedure&quot;: &quot;Tracheostomy Procedures&quot;] TracheostomySurgery\r\n      such that TracheostomySurgery.status = 'completed'\r\n        and TracheostomySurgery.startsDuringHospitalization ( EncounterWithSurgery )\r\n        and TracheostomySurgery.performed.toInterval ( ) starts before day of FirstProcedure.performed.toInterval ( )\r\n\r\ndefine &quot;Encounter With Tracheostomy Same Day Of First OR Procedure&quot;:\r\n  &quot;Elective Inpatient Encounter With OR Procedure Within 3 Days&quot; EncounterWithSurgery\r\n    let FirstProcedure: EncounterWithSurgery.FirstAnesthesiaDuringHospitalization ( )\r\n    with [&quot;Procedure&quot;: &quot;Tracheostomy Procedures&quot;] TracheostomySurgery\r\n      such that TracheostomySurgery.status = 'completed'\r\n        and TracheostomySurgery.startsDuringHospitalization ( EncounterWithSurgery )\r\n        and TracheostomySurgery.performed.toInterval ( ) starts during day of FirstProcedure.performed.toInterval ( )\r\n\r\ndefine &quot;General Anesthesia And MAC&quot;:\r\n  [&quot;Procedure&quot;: &quot;Anesthesia Requiring Monitored Care&quot;] MAC\r\n    union [&quot;Procedure&quot;: &quot;General And Neuraxial Anesthesia&quot;]\r\n\r\ndefine &quot;Noninvasive Oxygen Therapy&quot;:\r\n  [&quot;Procedure&quot;: &quot;Non Invasive Oxygen Therapy By Nasal Cannula Or Mask&quot;] P\r\n    union [&quot;LaboratoryResultObservation&quot;: &quot;Non Invasive Oxygen Therapy&quot;] O\r\n\r\ndefine &quot;Intubation During General Anesthesia And MAC&quot;:\r\n  from\r\n    &quot;Elective Inpatient Encounter With OR Procedure Within 3 Days&quot; EncounterWithSurgery,\r\n    [&quot;Procedure&quot;: &quot;Intubation&quot;] ProceduralIntubation,\r\n    &quot;General Anesthesia And MAC&quot; Anesthesia\r\n    where ProceduralIntubation.status = 'completed'\r\n      and ProceduralIntubation.startsDuringHospitalization ( EncounterWithSurgery )\r\n      and ProceduralIntubation.performed.toInterval ( ) starts during Anesthesia.performed.toInterval ( )\r\n    return ProceduralIntubation\r\n\r\ndefine &quot;Extubation During General Anesthesia&quot;:\r\n  from\r\n    &quot;Elective Inpatient Encounter With OR Procedure Within 3 Days&quot; EncounterWithSurgery,\r\n    [&quot;Procedure&quot;: &quot;Removal of endotracheal tube (procedure)&quot;] Extubation,\r\n    &quot;General Anesthesia And MAC&quot; Anesthesia\r\n    where Extubation.status = 'completed'\r\n      and Extubation.startsDuringHospitalization ( EncounterWithSurgery )\r\n      and Extubation.performed.toInterval ( ) starts during Anesthesia.performed.toInterval ( )\r\n    return Extubation\r\n\r\ndefine &quot;Extubation With Preceding Noninvasive Oxygen&quot;:\r\n  from\r\n    &quot;Elective Inpatient Encounter With OR Procedure Within 3 Days&quot; EncounterWithSurgery,\r\n    [&quot;Procedure&quot;: &quot;Removal of endotracheal tube (procedure)&quot;] Extubation,\r\n    &quot;Noninvasive Oxygen Therapy&quot; OxygenSupport\r\n    let LatestAnesthesia: Extubation.LatestGeneralAnesthesiaOrMAC ( )\r\n    where Extubation.status = 'completed'\r\n      and Extubation.startsDuringHospitalization ( EncounterWithSurgery )\r\n      and Extubation.performed.toInterval ( ) starts after LatestAnesthesia.performed.toInterval ( )\r\n      and OxygenSupport.interval ( ) starts during Interval[end of LatestAnesthesia.performed.toInterval ( ), start of Extubation.performed.toInterval ( )]\r\n    return Extubation\r\n\r\ndefine &quot;Risk Variable All Encounter Diagnoses With POA Indication&quot;:\r\n  &quot;Initial Population&quot; QualifyingEncounter\r\n    return Tuple {\r\n      encounterId: QualifyingEncounter.id,\r\n      diagnoses: QualifyingEncounter.claimDiagnosesWithPOA ( )\r\n    }\r\n\r\ndefine &quot;Risk Variable ASA Physical Status Class&quot;:\r\n  [&quot;ObservationScreeningAssessment&quot;: &quot;American society of anesthesiologists morbidity state&quot;] ASAclass\r\n    with &quot;Initial Population&quot; QualifyingEncounter\r\n      such that ASAclass.status in { 'final', 'amended', 'corrected' }\r\n        and ASAclass.startsDuringHospitalization ( QualifyingEncounter )\r\n        and ASAclass.value as Concept in &quot;ASA Physical Status Class&quot;\r\n    return ASAclass.value as Concept\r\n\r\ndefine &quot;Risk Variable Body Mass Index (BMI)&quot;:\r\n  [&quot;USCoreBMIProfile&quot;: &quot;Body mass index (BMI) [Ratio]&quot;] BMI\r\n    with &quot;Initial Population&quot; InpatientEncounter\r\n      such that BMI.effective.toInterval ( ) starts during CQMCommon.&quot;HospitalizationWithObservation&quot; ( InpatientEncounter )\r\n        and BMI.value is not null\r\n        and BMI.status in { 'final', 'amended', 'corrected' }\r\n    return BMI.value as Quantity\r\n\r\ndefine &quot;Risk Variable Encounter Procedures&quot;:\r\n  from\r\n    [&quot;Procedure&quot;] TheProcedure,\r\n    &quot;Initial Population&quot; QualifyingEncounter\r\n    where TheProcedure.status = 'completed'\r\n      and TheProcedure.startsDuringHospitalization ( QualifyingEncounter )\r\n    return {\r\n      encounterId: QualifyingEncounter.id,\r\n      procedureId: TheProcedure.id,\r\n      procedureCode: TheProcedure.code,\r\n      procedureRank: TheProcedure.rank ( QualifyingEncounter ),\r\n      procedureTime: TheProcedure.performed.toInterval ( )\r\n    }\r\n\r\ndefine &quot;Risk Variable First Albumin In Encounter&quot;:\r\n  &quot;Initial Population&quot; QualifyingEncounter\r\n    return Tuple {\r\n      encounterId: QualifyingEncounter.id,\r\n      firstAlbumin: QualifyingEncounter.FirstAlbumin ( )\r\n    }\r\n\r\ndefine &quot;Risk Variable First Arterial pH In Encounter&quot;:\r\n  &quot;Initial Population&quot; QualifyingEncounter\r\n    return Tuple {\r\n      encounterId: QualifyingEncounter.id,\r\n      firstArterialpH: QualifyingEncounter.FirstArterialpH ( )\r\n    }\r\n\r\ndefine &quot;Risk Variable First AST In Encounter&quot;:\r\n  &quot;Initial Population&quot; QualifyingEncounter\r\n    return Tuple {\r\n      encounterId: QualifyingEncounter.id,\r\n      firstAST: QualifyingEncounter.FirstAST ( )\r\n    }\r\n\r\ndefine &quot;Risk Variable First Bicarbonate In Encounter&quot;:\r\n  &quot;Initial Population&quot; QualifyingEncounter\r\n    return Tuple {\r\n      encounterId: QualifyingEncounter.id,\r\n      firstBicarbonate: QualifyingEncounter.FirstBicarbonate ( )\r\n    }\r\n\r\ndefine &quot;Risk Variable First Bilirubin In Encounter&quot;:\r\n  &quot;Initial Population&quot; QualifyingEncounter\r\n    return Tuple {\r\n      encounterId: QualifyingEncounter.id,\r\n      firstBilirubin: QualifyingEncounter.FirstBilirubin ( )\r\n    }\r\n\r\ndefine &quot;Risk Variable First Blood Urea Nitrogen In Encounter&quot;:\r\n  &quot;Initial Population&quot; QualifyingEncounter\r\n    return Tuple {\r\n      encounterId: QualifyingEncounter.id,\r\n      firstBUN: QualifyingEncounter.FirstBloodUreaNitrogen ( )\r\n    }\r\n\r\ndefine &quot;Risk Variable First BMI&quot;:\r\n  &quot;Initial Population&quot; QualifyingEncounter\r\n    return Tuple {\r\n      encounterId: QualifyingEncounter.id,\r\n      firstBMI: QualifyingEncounter.FirstBMI ( )\r\n    }\r\n\r\ndefine &quot;Risk Variable First Body Temperature In Encounter&quot;:\r\n  &quot;Initial Population&quot; QualifyingEncounter\r\n    return Tuple {\r\n      encounterId: QualifyingEncounter.id,\r\n      firstBodyTemp: QualifyingEncounter.FirstBodyTemperature ( )\r\n    }\r\n\r\ndefine &quot;Risk Variable First Carbon Dioxide In Encounter&quot;:\r\n  &quot;Initial Population&quot; QualifyingEncounter\r\n    return Tuple {\r\n      encounterId: QualifyingEncounter.id,\r\n      firstCarbonDioxide: QualifyingEncounter.FirstCarbonDioxide ( )\r\n    }\r\n\r\ndefine &quot;Risk Variable First Creatinine In Encounter&quot;:\r\n  &quot;Initial Population&quot; QualifyingEncounter\r\n    return Tuple {\r\n      encounterId: QualifyingEncounter.id,\r\n      firstCreatinine: QualifyingEncounter.FirstCreatinine ( )\r\n    }\r\n\r\ndefine &quot;Risk Variable First Heart Rate In Encounter&quot;:\r\n  &quot;Initial Population&quot; QualifyingEncounter\r\n    return Tuple {\r\n      encounterId: QualifyingEncounter.id,\r\n      firstHeartRate: QualifyingEncounter.FirstHeartRate ( )\r\n    }\r\n\r\ndefine &quot;Risk Variable First Hematocrit In Encounter&quot;:\r\n  &quot;Initial Population&quot; QualifyingEncounter\r\n    return Tuple {\r\n      encounterId: QualifyingEncounter.id,\r\n      firstHematocrit: QualifyingEncounter.FirstHematocrit ( )\r\n    }\r\n\r\ndefine &quot;Risk Variable First Hemoglobin In Encounter&quot;:\r\n  &quot;Initial Population&quot; QualifyingEncounter\r\n    return Tuple {\r\n      encounterId: QualifyingEncounter.id,\r\n      firstHemoglobin: QualifyingEncounter.FirstHemoglobin ( )\r\n    }\r\n\r\ndefine &quot;Risk Variable First Leukocyte Count In Encounter&quot;:\r\n  &quot;Initial Population&quot; QualifyingEncounter\r\n    return Tuple {\r\n      encounterId: QualifyingEncounter.id,\r\n      firstLeukocyte: QualifyingEncounter.FirstLeukocyte ( )\r\n    }\r\n\r\ndefine &quot;Risk Variable First Oxygen In Encounter&quot;:\r\n  &quot;Initial Population&quot; QualifyingEncounter\r\n    return Tuple {\r\n      encounterId: QualifyingEncounter.id,\r\n      firstOxygen: QualifyingEncounter.FirstOxygen ( )\r\n    }\r\n\r\ndefine &quot;Risk Variable First Platelet Count In Encounter&quot;:\r\n  &quot;Initial Population&quot; QualifyingEncounter\r\n    return Tuple {\r\n      encounterId: QualifyingEncounter.id,\r\n      firstPlatelet: QualifyingEncounter.FirstPlatelet ( )\r\n    }\r\n\r\ndefine &quot;Risk Variable First Respiratory Rate In Encounter&quot;:\r\n  &quot;Initial Population&quot; QualifyingEncounter\r\n    return Tuple {\r\n      encounterId: QualifyingEncounter.id,\r\n      firstRespiratoryRate: QualifyingEncounter.FirstRespiratoryRate ( )\r\n    }\r\n\r\ndefine &quot;Risk Variable First Sodium In Encounter&quot;:\r\n  &quot;Initial Population&quot; QualifyingEncounter\r\n    return Tuple {\r\n      encounterId: QualifyingEncounter.id,\r\n      firstSodium: QualifyingEncounter.FirstSodium ( )\r\n    }\r\n\r\ndefine &quot;Risk Variable First Systolic Blood Pressure In Encounter&quot;:\r\n  &quot;Initial Population&quot; QualifyingEncounter\r\n    return Tuple {\r\n      encounterId: QualifyingEncounter.id,\r\n      firstSystolic: QualifyingEncounter.FirstSystolicBloodPressure ( )\r\n    }\r\n\r\ndefine &quot;Risk Variable First White Blood Cell Count In Encounter&quot;:\r\n  &quot;Initial Population&quot; QualifyingEncounter\r\n    return Tuple {\r\n      encounterId: QualifyingEncounter.id,\r\n      firstWBCcount: QualifyingEncounter.FirstWhiteBloodCellCount ( )\r\n    }\r\n\r\ndefine &quot;Risk Variable Principal Procedure&quot;:\r\n  from\r\n    [&quot;Procedure&quot;] TheProcedure,\r\n    &quot;Initial Population&quot; QualifyingEncounter\r\n    where TheProcedure.status = 'completed'\r\n      and TheProcedure.rank ( QualifyingEncounter ) is not null //= 1\r\n      \r\n      and TheProcedure.startsDuringHospitalization ( QualifyingEncounter )\r\n    return Tuple {\r\n      encounterId: QualifyingEncounter.id,\r\n      procedureId: TheProcedure.id,\r\n      procedureCode: TheProcedure.code,\r\n      procedureRank: TheProcedure.rank ( QualifyingEncounter ),\r\n      procedureTime: TheProcedure.performed.toInterval ( )\r\n    }\r\n\r\ndefine &quot;SDE Ethnicity&quot;:\r\n  SDE.&quot;SDE Ethnicity&quot;\r\n\r\ndefine &quot;SDE Payer&quot;:\r\n  SDE.&quot;SDE Payer&quot;\r\n\r\ndefine &quot;SDE Race&quot;:\r\n  SDE.&quot;SDE Race&quot;\r\n\r\ndefine &quot;SDE Sex&quot;:\r\n  SDE.&quot;SDE Sex&quot;\r\n\r\ndefine fluent function FirstAlbumin(QualifyingEncounter Encounter):\r\n  First([LaboratoryResultObservation: &quot;Albumin Lab Test&quot;] FirstAlbuminTest\r\n      where FirstAlbuminTest.status in { 'final', 'amended', 'corrected' }\r\n        and FirstAlbuminTest.isEarliestDuringHospitalization(QualifyingEncounter)\r\n      sort by effective.earliest()\r\n  ).value as Quantity\r\n\r\ndefine fluent function FirstArterialpH(QualifyingEncounter Encounter):\r\n  First([LaboratoryResultObservation: &quot;Arterial Blood pH&quot;] FirstArterialpHTest\r\n      where FirstArterialpHTest.status in { 'final', 'amended', 'corrected' }\r\n        and FirstArterialpHTest.isEarliestDuringHospitalization(QualifyingEncounter)\r\n      sort by effective.earliest()\r\n  ).value as Quantity\r\n\r\ndefine fluent function FirstAST(QualifyingEncounter Encounter):\r\n  First([LaboratoryResultObservation: &quot;Aspartate transaminase Lab Test&quot;] FirstASTTest\r\n      where FirstASTTest.status in { 'final', 'amended', 'corrected' }\r\n        and FirstASTTest.isEarliestDuringHospitalization(QualifyingEncounter)\r\n      sort by effective.earliest()\r\n  ).value as Quantity\r\n\r\ndefine fluent function FirstBicarbonate(QualifyingEncounter Encounter):\r\n  First([LaboratoryResultObservation: &quot;Bicarbonate Lab Test&quot;] FirstBicarbonateTest\r\n      where FirstBicarbonateTest.status in { 'final', 'amended', 'corrected' }\r\n        and FirstBicarbonateTest.isEarliestDuringHospitalization(QualifyingEncounter)\r\n      sort by effective.earliest()\r\n  ).value as Quantity\r\n\r\ndefine fluent function FirstBilirubin(QualifyingEncounter Encounter):\r\n  First([LaboratoryResultObservation: &quot;Bilirubin Lab Test&quot;] FirstBilirubinTest\r\n      where FirstBilirubinTest.status in { 'final', 'amended', 'corrected' }\r\n        and FirstBilirubinTest.isEarliestDuringHospitalization(QualifyingEncounter)\r\n      sort by effective.earliest()\r\n  ).value as Quantity\r\n\r\ndefine fluent function FirstBMI(QualifyingEncounter Encounter):\r\n  First([USCoreBMIProfile: &quot;Body mass index (BMI) [Ratio]&quot;] FirstBodyMass\r\n      where FirstBodyMass.status in { 'final', 'amended', 'corrected' }\r\n        and FirstBodyMass.effective.toInterval() starts during CQMCommon.&quot;HospitalizationWithObservation&quot;(QualifyingEncounter)\r\n        and FirstBodyMass.value is not null\r\n      sort by effective.earliest()\r\n  ).value as Quantity\r\n\r\ndefine fluent function FirstBodyTemperature(QualifyingEncounter Encounter):\r\n  First([&quot;USCoreBodyTemperatureProfile&quot;: &quot;Body temperature&quot;] FirstTemperature\r\n      where FirstTemperature.status in { 'final', 'amended', 'corrected' }\r\n        and FirstTemperature.effective.earliest() during QualifyingEncounter.hospitalizationWithObservation()\r\n        and FirstTemperature.value is not null\r\n      sort by effective.earliest()\r\n  ).value as Quantity\r\n\r\ndefine fluent function FirstCarbonDioxide(QualifyingEncounter Encounter):\r\n  First([LaboratoryResultObservation: &quot;Carbon Dioxide Partial Pressure In Arterial Blood&quot;] FirstCarbonDioxideTest\r\n      where FirstCarbonDioxideTest.status in { 'final', 'amended', 'corrected' }\r\n        and FirstCarbonDioxideTest.isEarliestDuringHospitalization(QualifyingEncounter)\r\n      sort by effective.earliest()\r\n  ).value as Quantity\r\n\r\ndefine fluent function FirstCreatinine(QualifyingEncounter Encounter):\r\n  First([LaboratoryResultObservation: &quot;Creatinine Lab Test&quot;] FirstCreatinineTest\r\n      where FirstCreatinineTest.status in { 'final', 'amended', 'corrected' }\r\n        and FirstCreatinineTest.isEarliestDuringHospitalization(QualifyingEncounter)\r\n      sort by effective.earliest()\r\n  ).value as Quantity\r\n\r\ndefine fluent function FirstHeartRate(QualifyingEncounter Encounter):\r\n  First([&quot;USCoreHeartRateProfile&quot;: &quot;Heart rate&quot;] FirstHeartBeats\r\n      where FirstHeartBeats.status in { 'final', 'amended', 'corrected' }\r\n        and FirstHeartBeats.effective.earliest() during QualifyingEncounter.hospitalizationWithObservation()\r\n        and FirstHeartBeats.value is not null\r\n      sort by effective.earliest()\r\n  ).value as Quantity\r\n\r\ndefine fluent function FirstHematocrit(QualifyingEncounter Encounter):\r\n  First([LaboratoryResultObservation: &quot;Hematocrit Lab Test&quot;] FirstHematocritTest\r\n      where FirstHematocritTest.status in { 'final', 'amended', 'corrected' }\r\n        and FirstHematocritTest.isEarliestDuringHospitalization(QualifyingEncounter)\r\n      sort by effective.earliest()\r\n  ).value as Quantity\r\n\r\ndefine fluent function FirstHemoglobin(QualifyingEncounter Encounter):\r\n  First([LaboratoryResultObservation: &quot;Hemoglobin Lab Test&quot;] FirstHemoglobinTest\r\n      where FirstHemoglobinTest.status in { 'final', 'amended', 'corrected' }\r\n        and FirstHemoglobinTest.isEarliestDuringHospitalization(QualifyingEncounter)\r\n      sort by effective.earliest()\r\n  ).value as Quantity\r\n\r\ndefine fluent function FirstLeukocyte(QualifyingEncounter Encounter):\r\n  First([LaboratoryResultObservation: &quot;Leukocyte Count Lab Test&quot;] FirstLeukocyteCount\r\n      where FirstLeukocyteCount.status in { 'final', 'amended', 'corrected' }\r\n        and FirstLeukocyteCount.isEarliestDuringHospitalization(QualifyingEncounter)\r\n      sort by effective.earliest()\r\n  ).value as Quantity\r\n\r\ndefine fluent function FirstOxygen(QualifyingEncounter Encounter):\r\n  First([LaboratoryResultObservation: &quot;Oxygen Partial Pressure In Arterial Blood&quot;] FirstOxygenTest\r\n      where FirstOxygenTest.status in { 'final', 'amended', 'corrected' }\r\n        and FirstOxygenTest.isEarliestDuringHospitalization(QualifyingEncounter)\r\n      sort by effective.earliest()\r\n  ).value as Quantity\r\n\r\ndefine fluent function FirstPlatelet(QualifyingEncounter Encounter):\r\n  First([LaboratoryResultObservation: &quot;Platelet Count Lab Test&quot;] FirstPlateletCount\r\n      where FirstPlateletCount.status in { 'final', 'amended', 'corrected' }\r\n        and FirstPlateletCount.isEarliestDuringHospitalization(QualifyingEncounter)\r\n      sort by effective.earliest()\r\n  ).value as Quantity\r\n\r\ndefine fluent function FirstRespiratoryRate(QualifyingEncounter Encounter):\r\n  First([USCoreRespiratoryRateProfile: &quot;Respiratory rate&quot;] FirstRespiration\r\n      where FirstRespiration.status in { 'final', 'amended', 'corrected' }\r\n        and FirstRespiration.effective.earliest() during QualifyingEncounter.hospitalizationWithObservation()\r\n        and FirstRespiration.value is not null\r\n      sort by effective.earliest()\r\n  ).value as Quantity\r\n\r\ndefine fluent function FirstSodium(QualifyingEncounter Encounter):\r\n  First([LaboratoryResultObservation: &quot;Sodium Lab Test&quot;] FirstSodiumTest\r\n      where FirstSodiumTest.status in { 'final', 'amended', 'corrected' }\r\n        and FirstSodiumTest.isEarliestDuringHospitalization(QualifyingEncounter)\r\n      sort by effective.earliest()\r\n  ).value as Quantity\r\n\r\ndefine &quot;Qualifying Systolic Blood Pressure Reading&quot;:\r\n  [&quot;USCoreBloodPressureProfile&quot;] BloodPressure\r\n    where BloodPressure.effective.earliest ( ) during day of &quot;Measurement Period&quot;\r\n\r\ndefine fluent function &quot;FirstSystolicBloodPressure&quot;(QualifyingEncounter Encounter):\r\n  First(&quot;Qualifying Systolic Blood Pressure Reading&quot; SBPReading\r\n      where SBPReading.status in { 'final', 'amended', 'corrected' }\r\n        and SBPReading.effective.earliest() during QualifyingEncounter.hospitalizationWithObservation()\r\n      return singleton from(SBPReading.component SBPComponent\r\n          where SBPComponent.code ~ &quot;Systolic blood pressure&quot;\r\n          return SBPComponent.value as Quantity\r\n      )\r\n  )\r\n\r\ndefine fluent function FirstWhiteBloodCellCount(QualifyingEncounter Encounter):\r\n  First([LaboratoryResultObservation: &quot;White Blood Cells Count Lab Test&quot;] FirstWBCCount\r\n      where FirstWBCCount.status in { 'final', 'amended', 'corrected' }\r\n        and FirstWBCCount.isEarliestDuringHospitalization(QualifyingEncounter)\r\n      sort by effective.earliest()\r\n  ).value as Quantity\r\n\r\ndefine fluent function FirstBloodUreaNitrogen(QualifyingEncounter Encounter):\r\n  First([LaboratoryResultObservation: &quot;Blood Urea Nitrogen Lab Test&quot;] FirstBUN\r\n      where FirstBUN.status in { 'final', 'amended', 'corrected' }\r\n        and FirstBUN.isEarliestDuringHospitalization(QualifyingEncounter)\r\n      sort by effective.earliest()\r\n  ).value as Quantity\r\n\r\ndefine &quot;Anesthesia Procedure List&quot;:\r\n  [&quot;Procedure&quot;: &quot;General And Neuraxial Anesthesia&quot;] AnesthesiaProcedures\r\n    where AnesthesiaProcedures.performed.latest ( ) during day of &quot;Measurement Period&quot;\r\n\r\ndefine fluent function &quot;FirstAnesthesiaDuringHospitalization&quot;(QualifyingEncounter Encounter):\r\n  First(&quot;Anesthesia Procedure List&quot; anesthesia\r\n      where anesthesia.status = 'completed'\r\n        and anesthesia.startsDuringHospitalization(QualifyingEncounter)\r\n      sort by start of performed.toInterval()\r\n  )\r\n\r\ndefine fluent function LatestGeneralAnesthesiaOrMAC(event Procedure):\r\n  Last(&quot;General Anesthesia And MAC&quot; ProcedureList\r\n      where ProcedureList.status = 'completed'\r\n        and ProcedureList.performed.toInterval() ends before start of event.performed.toInterval()\r\n      sort by start of performed.toInterval()\r\n  )\r\n\r\ndefine fluent function startsDuringHospitalization(choice Choice&lt;Procedure, LaboratoryResultObservation, ObservationScreeningAssessment&gt;, enc Encounter):\r\n  case\r\n    when choice is Procedure then ( choice as Procedure ).performed.toInterval ( ) starts during CQMCommon.&quot;HospitalizationWithObservationAndOutpatientSurgeryService&quot; ( enc )\r\n    when choice is LaboratoryResultObservation then ( choice as LaboratoryResultObservation ).effective.toInterval ( ) starts during CQMCommon.&quot;HospitalizationWithObservationAndOutpatientSurgeryService&quot; ( enc )\r\n    when choice is ObservationScreeningAssessment then ( choice as ObservationScreeningAssessment ).effective.toInterval ( ) starts during CQMCommon.&quot;HospitalizationWithObservationAndOutpatientSurgeryService&quot; ( enc ) \r\n    else false end\r\n\r\ndefine fluent function starts30DaysOrLessAfterFirstAnesthesia(procedure Procedure, encounter Encounter):\r\n  procedure.performed.toInterval ( ) starts 30 days or less after end of encounter.FirstAnesthesiaDuringHospitalization ( ).performed.toInterval ( )\r\n\r\ndefine fluent function isNotAtProceduralHospitalLocation(encounter Encounter):\r\n  not exists ( encounter.location EncounterLocation\r\n      with [Location] Location\r\n        such that EncounterLocation.location.references ( Location )\r\n          and Location.type.includesCode ( &quot;ER&quot; )\r\n  )\r\n\r\ndefine fluent function isNotAtProceduralHospitalLocationDuring(encounter Encounter, intrvl Interval&lt;DateTime&gt;):\r\n  not exists ( encounter.location EncounterLocation\r\n      with [Location] Location\r\n        such that EncounterLocation.location.references ( Location )\r\n          and Location.type.includesCode ( &quot;ER&quot; )\r\n          and EncounterLocation.period starts during intrvl\r\n  )\r\n\r\ndefine fluent function isDuringHospitalization(choice Choice&lt;Procedure, LaboratoryResultObservation&gt;, enc Encounter):\r\n  case\r\n    when choice is Procedure then QICoreCommon.ToInterval ( ( choice as Procedure ).performed ) during CQMCommon.&quot;HospitalizationWithObservationAndOutpatientSurgeryService&quot; ( enc )\r\n    when choice is LaboratoryResultObservation then QICoreCommon.ToInterval ( ( choice as LaboratoryResultObservation ).effective ) during CQMCommon.&quot;HospitalizationWithObservationAndOutpatientSurgeryService&quot; ( enc ) \r\n    else false end\r\n\r\ndefine fluent function earliestOccursDuringHospitalization(observation LaboratoryResultObservation, encounter Encounter):\r\n  observation.effective.earliest ( ) during encounter.hospitalizationWithObservationAndOutpatientSurgeryService ( )\r\n    and observation.value is not null\r\n\r\ndefine fluent function earliestIsDuringHospitalization(procedure Procedure, encounter Encounter):\r\n  procedure.performed.earliest ( ) during encounter.hospitalizationWithObservationAndOutpatientSurgeryService ( )\r\n    and procedure.partOf is not null\r\n\r\ndefine fluent function isEarliestDuringHospitalization(choice Choice&lt;Procedure, LaboratoryResultObservation&gt;, encounter Encounter):\r\n  case\r\n    when choice is Procedure then ( choice as Procedure ).earliestIsDuringHospitalization ( encounter )\r\n    when choice is LaboratoryResultObservation then ( choice as LaboratoryResultObservation ).earliestOccursDuringHospitalization ( encounter ) \r\n    else false end\r\n\r\ndefine fluent function interval(choice Choice&lt;Procedure, LaboratoryResultObservation, Encounter&gt;):\r\n  case\r\n    when choice is Procedure then ( choice as Procedure ).performed.toInterval ( )\r\n    when choice is LaboratoryResultObservation then ( choice as LaboratoryResultObservation ).effective.toInterval ( )\r\n    when choice is Encounter then ( choice as Encounter ).period.toInterval ( ) \r\n    else null as Interval&lt;DateTime&gt;end\r\n\r\ndefine fluent function rank(targetProcedure Procedure, parentEncounter Encounter):\r\n  singleton from ( targetProcedure P\r\n      let claim: ( [Claim] C\r\n          where C.status = 'active'\r\n            and C.use = 'claim'\r\n            and exists ( C.item I\r\n                where I.encounter.references ( parentEncounter )\r\n            )\r\n      ),\r\n      claimProc: ( claim.procedure proc\r\n          where proc.procedure.references ( P )\r\n      )\r\n      return claimProc.sequence R\r\n  )\r\n\r\ndefine fluent function claimDiagnosesWithPOA(encounter Encounter):\r\n  encounter E\r\n    let claim: ( [Claim] C\r\n        where C.status = 'active'\r\n          and C.use = 'claim'\r\n          and exists ( C.item I\r\n              where I.encounter.references ( E )\r\n          )\r\n    ),\r\n    claimItem: ( claim.item I\r\n        where I.encounter.references ( E )\r\n    )\r\n    return claim.diagnosis D\r\n      where D.sequence in claimItem.diagnosisSequence\r\n        and D.onAdmission is not null\r\n\r\ndefine fluent function encounterReason(Encounter Encounter):\r\n  // There is a problem in the CQMCommon fluent function 'encounterDiagnosis' wherein the union operation isn't working as used.\r\n  // This function fixes that usage, but should be considered temporary until the library function works properly   \r\n  \r\n  \r\n  Encounter.reasonReference D\r\n    return singleton from ( ( [ConditionEncounterDiagnosis] cA\r\n        union [ConditionProblemsHealthConcerns] cB ) C\r\n        where D.references ( C.id )\r\n    )</code></pre>\n      </td>\n    </tr>\n    \n    \n    \n  \n\n<tr>\n  <th colspan=\"2\" scope=\"row\" class=\"row-header\">Generated using version 0.4.7 of the sample-content-ig Liquid templates</th>\n</tr>\n\n    </tbody>\n  </table>\n</div>"},"contained":[{"resourceType":"Parameters","id":"options","parameter":[{"name":"translatorVersion","valueString":"3.25.0"},{"name":"option","valueString":"EnableAnnotations"},{"name":"option","valueString":"EnableLocators"},{"name":"option","valueString":"DisableListDemotion"},{"name":"option","valueString":"DisableListPromotion"},{"name":"format","valueString":"XML"},{"name":"format","valueString":"JSON"},{"name":"analyzeDataRequirements","valueBoolean":false},{"name":"collapseDataRequirements","valueBoolean":false},{"name":"compatibilityLevel","valueString":"1.5"},{"name":"enableCqlOnly","valueBoolean":false},{"name":"errorLevel","valueString":"Info"},{"name":"signatureLevel","valueString":"Overloads"},{"name":"validateUnits","valueBoolean":true},{"name":"verifyOnly","valueBoolean":false}]}],"extension":[{"url":"http://hl7.org/fhir/StructureDefinition/cqf-directReferenceCode","valueCoding":{"system":"http://loinc.org","code":"97816-3","display":"American society of anesthesiologists morbidity state"}},{"url":"http://hl7.org/fhir/StructureDefinition/cqf-directReferenceCode","valueCoding":{"system":"http://loinc.org","code":"39156-5","display":"Body mass index (BMI) [Ratio]"}},{"url":"http://hl7.org/fhir/StructureDefinition/cqf-directReferenceCode","valueCoding":{"system":"http://loinc.org","code":"8310-5","display":"Body temperature"}},{"url":"http://hl7.org/fhir/StructureDefinition/cqf-directReferenceCode","valueCoding":{"system":"http://snomed.info/sct","code":"103390000","display":"Elective (qualifier value)"}},{"url":"http://hl7.org/fhir/StructureDefinition/cqf-directReferenceCode","valueCoding":{"system":"http://loinc.org","code":"8867-4","display":"Heart rate"}},{"url":"http://hl7.org/fhir/StructureDefinition/cqf-directReferenceCode","valueCoding":{"system":"http://snomed.info/sct","code":"271280005","display":"Removal of endotracheal tube (procedure)"}},{"url":"http://hl7.org/fhir/StructureDefinition/cqf-directReferenceCode","valueCoding":{"system":"http://loinc.org","code":"9279-1","display":"Respiratory rate"}},{"url":"http://hl7.org/fhir/StructureDefinition/cqf-directReferenceCode","valueCoding":{"system":"http://loinc.org","code":"8480-6","display":"Systolic blood pressure"}},{"url":"http://hl7.org/fhir/StructureDefinition/cqf-directReferenceCode","valueCoding":{"system":"http://loinc.org","code":"72166-2","display":"Tobacco smoking status"}},{"url":"http://hl7.org/fhir/StructureDefinition/cqf-directReferenceCode","valueCoding":{"system":"http://terminology.hl7.org/CodeSystem/v3-RoleCode","code":"ER","display":"ER"}},{"url":"http://hl7.org/fhir/StructureDefinition/cqf-cqlOptions","valueReference":{"reference":"#options"}},{"url":"http://hl7.org/fhir/uv/crmi/StructureDefinition/crmi-softwaresystem","valueReference":{"reference":"Device/cqf-tooling"}}],"url":"https://madie.cms.gov/Library/CMS1218FHIRHHRF","identifier":[{"use":"official","system":"https://madie.cms.gov/login","value":"CMS1218FHIRHHRF"}],"version":"0.2.000","name":"CMS1218FHIRHHRF","title":"CMS1218FHIRHHRF","status":"active","experimental":false,"type":{"coding":[{"system":"http://terminology.hl7.org/CodeSystem/library-type","code":"logic-library"}]},"date":"2025-07-07T20:06:49+00:00","publisher":"Centers for Medicare & Medicaid Services (CMS)","description":"CMS1218FHIRHHRF","content":[{"contentType":"text/cql","data":""}]},"request":{"method":"PUT","url":"Library/CMS1218FHIRHHRF"}},{"resource":{"resourceType":"Measure","id":"CMS1218FHIRHHRF","meta":{"profile":["http://hl7.org/fhir/uv/crmi/StructureDefinition/crmi-shareablemeasure","http://hl7.org/fhir/us/cqfmeasures/StructureDefinition/computable-measure-cqfm","http://hl7.org/fhir/us/cqfmeasures/StructureDefinition/publishable-measure-cqfm","http://hl7.org/fhir/us/cqfmeasures/StructureDefinition/executable-measure-cqfm","http://hl7.org/fhir/us/cqfmeasures/StructureDefinition/cql-measure-cqfm","http://hl7.org/fhir/us/cqfmeasures/StructureDefinition/elm-measure-cqfm","http://hl7.org/fhir/us/cqfmeasures/StructureDefinition/proportion-measure-cqfm"]},"contained":[{"resourceType":"Library","id":"effective-data-requirements","extension":[{"url":"http://hl7.org/fhir/StructureDefinition/cqf-directReferenceCode","valueCoding":{"system":"http://snomed.info/sct","code":"103390000","display":"Elective (qualifier value)"}},{"url":"http://hl7.org/fhir/StructureDefinition/cqf-directReferenceCode","valueCoding":{"system":"http://loinc.org","code":"9279-1","display":"Respiratory rate"}},{"url":"http://hl7.org/fhir/StructureDefinition/cqf-directReferenceCode","valueCoding":{"system":"http://loinc.org","code":"8310-5","display":"Body temperature"}},{"url":"http://hl7.org/fhir/StructureDefinition/cqf-directReferenceCode","valueCoding":{"system":"http://loinc.org","code":"8867-4","display":"Heart rate"}},{"url":"http://hl7.org/fhir/StructureDefinition/cqf-directReferenceCode","valueCoding":{"system":"http://loinc.org","code":"39156-5","display":"Body mass index (BMI) [Ratio]"}},{"url":"http://hl7.org/fhir/StructureDefinition/cqf-directReferenceCode","valueCoding":{"system":"http://loinc.org","code":"97816-3","display":"American society of anesthesiologists morbidity state"}},{"url":"http://hl7.org/fhir/StructureDefinition/cqf-directReferenceCode","valueCoding":{"system":"http://loinc.org","code":"8480-6","display":"Systolic blood pressure"}},{"url":"http://hl7.org/fhir/StructureDefinition/cqf-directReferenceCode","valueCoding":{"system":"http://snomed.info/sct","code":"248153007","display":"Male (finding)"}},{"url":"http://hl7.org/fhir/StructureDefinition/cqf-directReferenceCode","valueCoding":{"system":"http://snomed.info/sct","code":"248152002","display":"Female (finding)"}},{"url":"http://hl7.org/fhir/StructureDefinition/cqf-directReferenceCode","valueCoding":{"system":"http://terminology.hl7.org/CodeSystem/v3-RoleCode","code":"ER","display":"Emergency room"}},{"url":"http://hl7.org/fhir/StructureDefinition/cqf-directReferenceCode","valueCoding":{"system":"http://snomed.info/sct","code":"271280005","display":"Removal of endotracheal tube (procedure)"}},{"url":"http://hl7.org/fhir/StructureDefinition/cqf-directReferenceCode","valueCoding":{"system":"http://terminology.hl7.org/CodeSystem/ex-diagnosistype","code":"principal","display":"Principal Diagnosis"}},{"url":"http://hl7.org/fhir/StructureDefinition/cqf-logicDefinition","extension":[{"url":"libraryName","valueString":"CMS1218FHIRHHRF"},{"url":"name","valueString":"Elective Inpatient Encounter With Age 18 And Older Without ED Visit"},{"url":"statement","valueString":"define \"Elective Inpatient Encounter With Age 18 And Older Without ED Visit\":   [\"Encounter\": \"Elective Inpatient Encounter\"] ElectiveEncounter     where ElectiveEncounter.status = 'finished'       and ElectiveEncounter.period ends during day of \"Measurement Period\"       and ElectiveEncounter.priority is not null implies ElectiveEncounter.priority ~ \"Elective (qualifier value)\"       and AgeInYearsAt(date from start of ElectiveEncounter.period) >= 18       and not exists ( [\"Encounter\": \"Emergency Department Visit\"] EDVisit           where EDVisit.status = 'finished'             and EDVisit.period ends 1 hour or less before or on start of ElectiveEncounter.period       )"},{"url":"displaySequence","valueInteger":0}]},{"url":"http://hl7.org/fhir/StructureDefinition/cqf-logicDefinition","extension":[{"url":"libraryName","valueString":"CMS1218FHIRHHRF"},{"url":"name","valueString":"Elective Inpatient Encounter With Age And Without Obstetrical Condition"},{"url":"statement","valueString":"define \"Elective Inpatient Encounter With Age And Without Obstetrical Condition\":   \"Elective Inpatient Encounter With Age 18 And Older Without ED Visit\" ElectiveEncounter     where not ( ElectiveEncounter.reasonCode in \"Obstetrical Or Pregnancy Related Conditions\"         or ElectiveEncounter.encounterReason ( ).code in \"Obstetrical Or Pregnancy Related Conditions\"     )"},{"url":"displaySequence","valueInteger":1}]},{"url":"http://hl7.org/fhir/StructureDefinition/cqf-logicDefinition","extension":[{"url":"libraryName","valueString":"CMS1218FHIRHHRF"},{"url":"name","valueString":"Elective Inpatient Encounter With OR Procedure Within 3 Days"},{"url":"statement","valueString":"define \"Elective Inpatient Encounter With OR Procedure Within 3 Days\":   \"Elective Inpatient Encounter With Age And Without Obstetrical Condition\" ElectiveEncounter     with [\"Procedure\": \"General And Neuraxial Anesthesia\"] SurgeryWithAnesthesia       such that SurgeryWithAnesthesia.status = 'completed'         and SurgeryWithAnesthesia.performed.earliest ( ) during ElectiveEncounter.hospitalizationWithObservationAndOutpatientSurgeryService ( )         and SurgeryWithAnesthesia.performed.earliest ( ) 3 days or less after start of ElectiveEncounter.hospitalizationWithObservationAndOutpatientSurgeryService ( )"},{"url":"displaySequence","valueInteger":2}]},{"url":"http://hl7.org/fhir/StructureDefinition/cqf-logicDefinition","extension":[{"url":"libraryName","valueString":"CMS1218FHIRHHRF"},{"url":"name","valueString":"Initial Population"},{"url":"statement","valueString":"define \"Initial Population\":   \"Elective Inpatient Encounter With OR Procedure Within 3 Days\""},{"url":"displaySequence","valueInteger":3}]},{"url":"http://hl7.org/fhir/StructureDefinition/cqf-logicDefinition","extension":[{"url":"libraryName","valueString":"CMS1218FHIRHHRF"},{"url":"name","valueString":"Risk Variable First Respiratory Rate In Encounter"},{"url":"statement","valueString":"define \"Risk Variable First Respiratory Rate In Encounter\":   \"Initial Population\" QualifyingEncounter     return Tuple {       encounterId: QualifyingEncounter.id,       firstRespiratoryRate: QualifyingEncounter.FirstRespiratoryRate ( )     }"},{"url":"displaySequence","valueInteger":4}]},{"url":"http://hl7.org/fhir/StructureDefinition/cqf-logicDefinition","extension":[{"url":"libraryName","valueString":"CMS1218FHIRHHRF"},{"url":"name","valueString":"Risk Variable First Albumin In Encounter"},{"url":"statement","valueString":"define \"Risk Variable First Albumin In Encounter\":   \"Initial Population\" QualifyingEncounter     return Tuple {       encounterId: QualifyingEncounter.id,       firstAlbumin: QualifyingEncounter.FirstAlbumin ( )     }"},{"url":"displaySequence","valueInteger":5}]},{"url":"http://hl7.org/fhir/StructureDefinition/cqf-logicDefinition","extension":[{"url":"libraryName","valueString":"CMS1218FHIRHHRF"},{"url":"name","valueString":"Risk Variable First Arterial pH In Encounter"},{"url":"statement","valueString":"define \"Risk Variable First Arterial pH In Encounter\":   \"Initial Population\" QualifyingEncounter     return Tuple {       encounterId: QualifyingEncounter.id,       firstArterialpH: QualifyingEncounter.FirstArterialpH ( )     }"},{"url":"displaySequence","valueInteger":6}]},{"url":"http://hl7.org/fhir/StructureDefinition/cqf-logicDefinition","extension":[{"url":"libraryName","valueString":"CMS1218FHIRHHRF"},{"url":"name","valueString":"Risk Variable First Body Temperature In Encounter"},{"url":"statement","valueString":"define \"Risk Variable First Body Temperature In Encounter\":   \"Initial Population\" QualifyingEncounter     return Tuple {       encounterId: QualifyingEncounter.id,       firstBodyTemp: QualifyingEncounter.FirstBodyTemperature ( )     }"},{"url":"displaySequence","valueInteger":7}]},{"url":"http://hl7.org/fhir/StructureDefinition/cqf-logicDefinition","extension":[{"url":"libraryName","valueString":"CMS1218FHIRHHRF"},{"url":"name","valueString":"Risk Variable First Carbon Dioxide In Encounter"},{"url":"statement","valueString":"define \"Risk Variable First Carbon Dioxide In Encounter\":   \"Initial Population\" QualifyingEncounter     return Tuple {       encounterId: QualifyingEncounter.id,       firstCarbonDioxide: QualifyingEncounter.FirstCarbonDioxide ( )     }"},{"url":"displaySequence","valueInteger":8}]},{"url":"http://hl7.org/fhir/StructureDefinition/cqf-logicDefinition","extension":[{"url":"libraryName","valueString":"CMS1218FHIRHHRF"},{"url":"name","valueString":"Risk Variable First Hematocrit In Encounter"},{"url":"statement","valueString":"define \"Risk Variable First Hematocrit In Encounter\":   \"Initial Population\" QualifyingEncounter     return Tuple {       encounterId: QualifyingEncounter.id,       firstHematocrit: QualifyingEncounter.FirstHematocrit ( )     }"},{"url":"displaySequence","valueInteger":9}]},{"url":"http://hl7.org/fhir/StructureDefinition/cqf-logicDefinition","extension":[{"url":"libraryName","valueString":"CMS1218FHIRHHRF"},{"url":"name","valueString":"Risk Variable First Heart Rate In Encounter"},{"url":"statement","valueString":"define \"Risk Variable First Heart Rate In Encounter\":   \"Initial Population\" QualifyingEncounter     return Tuple {       encounterId: QualifyingEncounter.id,       firstHeartRate: QualifyingEncounter.FirstHeartRate ( )     }"},{"url":"displaySequence","valueInteger":10}]},{"url":"http://hl7.org/fhir/StructureDefinition/cqf-logicDefinition","extension":[{"url":"libraryName","valueString":"CMS1218FHIRHHRF"},{"url":"name","valueString":"Risk Variable First BMI"},{"url":"statement","valueString":"define \"Risk Variable First BMI\":   \"Initial Population\" QualifyingEncounter     return Tuple {       encounterId: QualifyingEncounter.id,       firstBMI: QualifyingEncounter.FirstBMI ( )     }"},{"url":"displaySequence","valueInteger":11}]},{"url":"http://hl7.org/fhir/StructureDefinition/cqf-logicDefinition","extension":[{"url":"libraryName","valueString":"CMS1218FHIRHHRF"},{"url":"name","valueString":"Risk Variable First Hemoglobin In Encounter"},{"url":"statement","valueString":"define \"Risk Variable First Hemoglobin In Encounter\":   \"Initial Population\" QualifyingEncounter     return Tuple {       encounterId: QualifyingEncounter.id,       firstHemoglobin: QualifyingEncounter.FirstHemoglobin ( )     }"},{"url":"displaySequence","valueInteger":12}]},{"url":"http://hl7.org/fhir/StructureDefinition/cqf-logicDefinition","extension":[{"url":"libraryName","valueString":"CMS1218FHIRHHRF"},{"url":"name","valueString":"Risk Variable All Encounter Diagnoses With POA Indication"},{"url":"statement","valueString":"define \"Risk Variable All Encounter Diagnoses With POA Indication\":   \"Initial Population\" QualifyingEncounter     return Tuple {       encounterId: QualifyingEncounter.id,       diagnoses: QualifyingEncounter.claimDiagnosesWithPOA ( )     }"},{"url":"displaySequence","valueInteger":13}]},{"url":"http://hl7.org/fhir/StructureDefinition/cqf-logicDefinition","extension":[{"url":"libraryName","valueString":"CMS1218FHIRHHRF"},{"url":"name","valueString":"Risk Variable First Sodium In Encounter"},{"url":"statement","valueString":"define \"Risk Variable First Sodium In Encounter\":   \"Initial Population\" QualifyingEncounter     return Tuple {       encounterId: QualifyingEncounter.id,       firstSodium: QualifyingEncounter.FirstSodium ( )     }"},{"url":"displaySequence","valueInteger":14}]},{"url":"http://hl7.org/fhir/StructureDefinition/cqf-logicDefinition","extension":[{"url":"libraryName","valueString":"SupplementalDataElements"},{"url":"name","valueString":"SDE Payer"},{"url":"statement","valueString":"define \"SDE Payer\":   [Coverage: type in \"Payer Type\"] Payer     return {       code: Payer.type,       period: Payer.period     }"},{"url":"displaySequence","valueInteger":15}]},{"url":"http://hl7.org/fhir/StructureDefinition/cqf-logicDefinition","extension":[{"url":"libraryName","valueString":"CMS1218FHIRHHRF"},{"url":"name","valueString":"SDE Payer"},{"url":"statement","valueString":"define \"SDE Payer\":   SDE.\"SDE Payer\""},{"url":"displaySequence","valueInteger":16}]},{"url":"http://hl7.org/fhir/StructureDefinition/cqf-logicDefinition","extension":[{"url":"libraryName","valueString":"CMS1218FHIRHHRF"},{"url":"name","valueString":"Risk Variable First Creatinine In Encounter"},{"url":"statement","valueString":"define \"Risk Variable First Creatinine In Encounter\":   \"Initial Population\" QualifyingEncounter     return Tuple {       encounterId: QualifyingEncounter.id,       firstCreatinine: QualifyingEncounter.FirstCreatinine ( )     }"},{"url":"displaySequence","valueInteger":17}]},{"url":"http://hl7.org/fhir/StructureDefinition/cqf-logicDefinition","extension":[{"url":"libraryName","valueString":"CMS1218FHIRHHRF"},{"url":"name","valueString":"Risk Variable First White Blood Cell Count In Encounter"},{"url":"statement","valueString":"define \"Risk Variable First White Blood Cell Count In Encounter\":   \"Initial Population\" QualifyingEncounter     return Tuple {       encounterId: QualifyingEncounter.id,       firstWBCcount: QualifyingEncounter.FirstWhiteBloodCellCount ( )     }"},{"url":"displaySequence","valueInteger":18}]},{"url":"http://hl7.org/fhir/StructureDefinition/cqf-logicDefinition","extension":[{"url":"libraryName","valueString":"CMS1218FHIRHHRF"},{"url":"name","valueString":"Risk Variable ASA Physical Status Class"},{"url":"statement","valueString":"define \"Risk Variable ASA Physical Status Class\":   [\"ObservationScreeningAssessment\": \"American society of anesthesiologists morbidity state\"] ASAclass     with \"Initial Population\" QualifyingEncounter       such that ASAclass.status in { 'final', 'amended', 'corrected' }         and ASAclass.startsDuringHospitalization ( QualifyingEncounter )         and ASAclass.value as Concept in \"ASA Physical Status Class\"     return ASAclass.value as Concept"},{"url":"displaySequence","valueInteger":19}]},{"url":"http://hl7.org/fhir/StructureDefinition/cqf-logicDefinition","extension":[{"url":"libraryName","valueString":"CMS1218FHIRHHRF"},{"url":"name","valueString":"Risk Variable Principal Procedure"},{"url":"statement","valueString":"define \"Risk Variable Principal Procedure\":   from     [\"Procedure\"] TheProcedure,     \"Initial Population\" QualifyingEncounter     where TheProcedure.status = 'completed'       and TheProcedure.rank ( QualifyingEncounter ) is not null //= 1              and TheProcedure.startsDuringHospitalization ( QualifyingEncounter )     return Tuple {       encounterId: QualifyingEncounter.id,       procedureId: TheProcedure.id,       procedureCode: TheProcedure.code,       procedureRank: TheProcedure.rank ( QualifyingEncounter ),       procedureTime: TheProcedure.performed.toInterval ( )     }"},{"url":"displaySequence","valueInteger":20}]},{"url":"http://hl7.org/fhir/StructureDefinition/cqf-logicDefinition","extension":[{"url":"libraryName","valueString":"CMS1218FHIRHHRF"},{"url":"name","valueString":"Risk Variable Body Mass Index (BMI)"},{"url":"statement","valueString":"define \"Risk Variable Body Mass Index (BMI)\":   [\"USCoreBMIProfile\": \"Body mass index (BMI) [Ratio]\"] BMI     with \"Initial Population\" InpatientEncounter       such that BMI.effective.toInterval ( ) starts during CQMCommon.\"HospitalizationWithObservation\" ( InpatientEncounter )         and BMI.value is not null         and BMI.status in { 'final', 'amended', 'corrected' }     return BMI.value as Quantity"},{"url":"displaySequence","valueInteger":21}]},{"url":"http://hl7.org/fhir/StructureDefinition/cqf-logicDefinition","extension":[{"url":"libraryName","valueString":"CMS1218FHIRHHRF"},{"url":"name","valueString":"Risk Variable First Bicarbonate In Encounter"},{"url":"statement","valueString":"define \"Risk Variable First Bicarbonate In Encounter\":   \"Initial Population\" QualifyingEncounter     return Tuple {       encounterId: QualifyingEncounter.id,       firstBicarbonate: QualifyingEncounter.FirstBicarbonate ( )     }"},{"url":"displaySequence","valueInteger":22}]},{"url":"http://hl7.org/fhir/StructureDefinition/cqf-logicDefinition","extension":[{"url":"libraryName","valueString":"CMS1218FHIRHHRF"},{"url":"name","valueString":"Risk Variable First Bilirubin In Encounter"},{"url":"statement","valueString":"define \"Risk Variable First Bilirubin In Encounter\":   \"Initial Population\" QualifyingEncounter     return Tuple {       encounterId: QualifyingEncounter.id,       firstBilirubin: QualifyingEncounter.FirstBilirubin ( )     }"},{"url":"displaySequence","valueInteger":23}]},{"url":"http://hl7.org/fhir/StructureDefinition/cqf-logicDefinition","extension":[{"url":"libraryName","valueString":"CMS1218FHIRHHRF"},{"url":"name","valueString":"Qualifying Systolic Blood Pressure Reading"},{"url":"statement","valueString":"define \"Qualifying Systolic Blood Pressure Reading\":   [\"USCoreBloodPressureProfile\"] BloodPressure     where BloodPressure.effective.earliest ( ) during day of \"Measurement Period\""},{"url":"displaySequence","valueInteger":24}]},{"url":"http://hl7.org/fhir/StructureDefinition/cqf-logicDefinition","extension":[{"url":"libraryName","valueString":"CMS1218FHIRHHRF"},{"url":"name","valueString":"Risk Variable First Systolic Blood Pressure In Encounter"},{"url":"statement","valueString":"define \"Risk Variable First Systolic Blood Pressure In Encounter\":   \"Initial Population\" QualifyingEncounter     return Tuple {       encounterId: QualifyingEncounter.id,       firstSystolic: QualifyingEncounter.FirstSystolicBloodPressure ( )     }"},{"url":"displaySequence","valueInteger":25}]},{"url":"http://hl7.org/fhir/StructureDefinition/cqf-logicDefinition","extension":[{"url":"libraryName","valueString":"CMS1218FHIRHHRF"},{"url":"name","valueString":"Risk Variable First Oxygen In Encounter"},{"url":"statement","valueString":"define \"Risk Variable First Oxygen In Encounter\":   \"Initial Population\" QualifyingEncounter     return Tuple {       encounterId: QualifyingEncounter.id,       firstOxygen: QualifyingEncounter.FirstOxygen ( )     }"},{"url":"displaySequence","valueInteger":26}]},{"url":"http://hl7.org/fhir/StructureDefinition/cqf-logicDefinition","extension":[{"url":"libraryName","valueString":"CMS1218FHIRHHRF"},{"url":"name","valueString":"Risk Variable First Leukocyte Count In Encounter"},{"url":"statement","valueString":"define \"Risk Variable First Leukocyte Count In Encounter\":   \"Initial Population\" QualifyingEncounter     return Tuple {       encounterId: QualifyingEncounter.id,       firstLeukocyte: QualifyingEncounter.FirstLeukocyte ( )     }"},{"url":"displaySequence","valueInteger":27}]},{"url":"http://hl7.org/fhir/StructureDefinition/cqf-logicDefinition","extension":[{"url":"libraryName","valueString":"SupplementalDataElements"},{"url":"name","valueString":"SDE Race"},{"url":"statement","valueString":"define \"SDE Race\":   Patient.race R     return Tuple {       codes: R.ombCategory union R.detailed,       display: R.text     }"},{"url":"displaySequence","valueInteger":28}]},{"url":"http://hl7.org/fhir/StructureDefinition/cqf-logicDefinition","extension":[{"url":"libraryName","valueString":"CMS1218FHIRHHRF"},{"url":"name","valueString":"SDE Race"},{"url":"statement","valueString":"define \"SDE Race\":   SDE.\"SDE Race\""},{"url":"displaySequence","valueInteger":29}]},{"url":"http://hl7.org/fhir/StructureDefinition/cqf-logicDefinition","extension":[{"url":"libraryName","valueString":"SupplementalDataElements"},{"url":"name","valueString":"SDE Sex"},{"url":"statement","valueString":"define \"SDE Sex\":   case     when Patient.sex = '248153007' then \"Male (finding)\"     when Patient.sex = '248152002' then \"Female (finding)\"     else null   end"},{"url":"displaySequence","valueInteger":30}]},{"url":"http://hl7.org/fhir/StructureDefinition/cqf-logicDefinition","extension":[{"url":"libraryName","valueString":"CMS1218FHIRHHRF"},{"url":"name","valueString":"SDE Sex"},{"url":"statement","valueString":"define \"SDE Sex\":   SDE.\"SDE Sex\""},{"url":"displaySequence","valueInteger":31}]},{"url":"http://hl7.org/fhir/StructureDefinition/cqf-logicDefinition","extension":[{"url":"libraryName","valueString":"CMS1218FHIRHHRF"},{"url":"name","valueString":"Anesthesia Procedure List"},{"url":"statement","valueString":"define \"Anesthesia Procedure List\":   [\"Procedure\": \"General And Neuraxial Anesthesia\"] AnesthesiaProcedures     where AnesthesiaProcedures.performed.latest ( ) during day of \"Measurement Period\""},{"url":"displaySequence","valueInteger":32}]},{"url":"http://hl7.org/fhir/StructureDefinition/cqf-logicDefinition","extension":[{"url":"libraryName","valueString":"CMS1218FHIRHHRF"},{"url":"name","valueString":"General Anesthesia And MAC"},{"url":"statement","valueString":"define \"General Anesthesia And MAC\":   [\"Procedure\": \"Anesthesia Requiring Monitored Care\"] MAC     union [\"Procedure\": \"General And Neuraxial Anesthesia\"]"},{"url":"displaySequence","valueInteger":33}]},{"url":"http://hl7.org/fhir/StructureDefinition/cqf-logicDefinition","extension":[{"url":"libraryName","valueString":"CMS1218FHIRHHRF"},{"url":"name","valueString":"Intubation During General Anesthesia And MAC"},{"url":"statement","valueString":"define \"Intubation During General Anesthesia And MAC\":   from     \"Elective Inpatient Encounter With OR Procedure Within 3 Days\" EncounterWithSurgery,     [\"Procedure\": \"Intubation\"] ProceduralIntubation,     \"General Anesthesia And MAC\" Anesthesia     where ProceduralIntubation.status = 'completed'       and ProceduralIntubation.startsDuringHospitalization ( EncounterWithSurgery )       and ProceduralIntubation.performed.toInterval ( ) starts during Anesthesia.performed.toInterval ( )     return ProceduralIntubation"},{"url":"displaySequence","valueInteger":34}]},{"url":"http://hl7.org/fhir/StructureDefinition/cqf-logicDefinition","extension":[{"url":"libraryName","valueString":"CMS1218FHIRHHRF"},{"url":"name","valueString":"Encounter With Intubation Outside Of Procedural Area Within 30 Days Of End Of First OR Procedure"},{"url":"statement","valueString":"define \"Encounter With Intubation Outside Of Procedural Area Within 30 Days Of End Of First OR Procedure\":   \"Elective Inpatient Encounter With OR Procedure Within 3 Days\" EncounterWithSurgery     with [\"Procedure\": \"Intubation\"] EndotrachealTubeIn       such that EndotrachealTubeIn.status = 'completed'         and EndotrachealTubeIn.starts30DaysOrLessAfterFirstAnesthesia ( EncounterWithSurgery )         and EndotrachealTubeIn.startsDuringHospitalization ( EncounterWithSurgery )         and EndotrachealTubeIn.performed.toInterval ( ) starts after end of EndotrachealTubeIn.LatestGeneralAnesthesiaOrMAC ( ).performed.toInterval ( )         and EncounterWithSurgery.isNotAtProceduralHospitalLocationDuring ( EndotrachealTubeIn.performed.toInterval ( ) )         and not ( \"Intubation During General Anesthesia And MAC\".id contains EndotrachealTubeIn.id )"},{"url":"displaySequence","valueInteger":35}]},{"url":"http://hl7.org/fhir/StructureDefinition/cqf-logicDefinition","extension":[{"url":"libraryName","valueString":"CMS1218FHIRHHRF"},{"url":"name","valueString":"Noninvasive Oxygen Therapy"},{"url":"statement","valueString":"define \"Noninvasive Oxygen Therapy\":   [\"Procedure\": \"Non Invasive Oxygen Therapy By Nasal Cannula Or Mask\"] P     union [\"LaboratoryResultObservation\": \"Non Invasive Oxygen Therapy\"] O"},{"url":"displaySequence","valueInteger":36}]},{"url":"http://hl7.org/fhir/StructureDefinition/cqf-logicDefinition","extension":[{"url":"libraryName","valueString":"CMS1218FHIRHHRF"},{"url":"name","valueString":"Encounter With Mechanical Ventilation Outside Of Procedural Area Within 30 Days Of End Of First OR Procedure And Preceded By Non Invasive Oxygen Therapy"},{"url":"statement","valueString":"define \"Encounter With Mechanical Ventilation Outside Of Procedural Area Within 30 Days Of End Of First OR Procedure And Preceded By Non Invasive Oxygen Therapy\":   from     \"Elective Inpatient Encounter With OR Procedure Within 3 Days\" EncounterWithSurgery,     [\"Procedure\": \"Mechanical Ventilation\"] Ventilation,     \"Noninvasive Oxygen Therapy\" OxygenSupport     let VentilationInterval: Ventilation.performed.toInterval ( ),     LatestAnesthesiaInterval: Ventilation.LatestGeneralAnesthesiaOrMAC ( ).performed.toInterval ( )     where Ventilation.status = 'completed'       and Ventilation.starts30DaysOrLessAfterFirstAnesthesia ( EncounterWithSurgery )       and Ventilation.startsDuringHospitalization ( EncounterWithSurgery )       and VentilationInterval starts after end of LatestAnesthesiaInterval       and OxygenSupport.interval ( ) starts during Interval[end of LatestAnesthesiaInterval, start of VentilationInterval]       and EncounterWithSurgery.isNotAtProceduralHospitalLocationDuring ( VentilationInterval )     return EncounterWithSurgery"},{"url":"displaySequence","valueInteger":37}]},{"url":"http://hl7.org/fhir/StructureDefinition/cqf-logicDefinition","extension":[{"url":"libraryName","valueString":"CMS1218FHIRHHRF"},{"url":"name","valueString":"Extubation With Preceding Noninvasive Oxygen"},{"url":"statement","valueString":"define \"Extubation With Preceding Noninvasive Oxygen\":   from     \"Elective Inpatient Encounter With OR Procedure Within 3 Days\" EncounterWithSurgery,     [\"Procedure\": \"Removal of endotracheal tube (procedure)\"] Extubation,     \"Noninvasive Oxygen Therapy\" OxygenSupport     let LatestAnesthesia: Extubation.LatestGeneralAnesthesiaOrMAC ( )     where Extubation.status = 'completed'       and Extubation.startsDuringHospitalization ( EncounterWithSurgery )       and Extubation.performed.toInterval ( ) starts after LatestAnesthesia.performed.toInterval ( )       and OxygenSupport.interval ( ) starts during Interval[end of LatestAnesthesia.performed.toInterval ( ), start of Extubation.performed.toInterval ( )]     return Extubation"},{"url":"displaySequence","valueInteger":38}]},{"url":"http://hl7.org/fhir/StructureDefinition/cqf-logicDefinition","extension":[{"url":"libraryName","valueString":"CMS1218FHIRHHRF"},{"url":"name","valueString":"Extubation During General Anesthesia"},{"url":"statement","valueString":"define \"Extubation During General Anesthesia\":   from     \"Elective Inpatient Encounter With OR Procedure Within 3 Days\" EncounterWithSurgery,     [\"Procedure\": \"Removal of endotracheal tube (procedure)\"] Extubation,     \"General Anesthesia And MAC\" Anesthesia     where Extubation.status = 'completed'       and Extubation.startsDuringHospitalization ( EncounterWithSurgery )       and Extubation.performed.toInterval ( ) starts during Anesthesia.performed.toInterval ( )     return Extubation"},{"url":"displaySequence","valueInteger":39}]},{"url":"http://hl7.org/fhir/StructureDefinition/cqf-logicDefinition","extension":[{"url":"libraryName","valueString":"CMS1218FHIRHHRF"},{"url":"name","valueString":"Encounter With Extubation Outside Of Procedural Area Within 30 Days Of End Of First OR Procedure More Than 48 Hours After End Of Anesthesia"},{"url":"statement","valueString":"define \"Encounter With Extubation Outside Of Procedural Area Within 30 Days Of End Of First OR Procedure More Than 48 Hours After End Of Anesthesia\":   \"Elective Inpatient Encounter With OR Procedure Within 3 Days\" EncounterWithSurgery     with [\"Procedure\": \"Removal of endotracheal tube (procedure)\"] Extubation       such that Extubation.status = 'completed'         and Extubation.isDuringHospitalization ( EncounterWithSurgery )         and Extubation.starts30DaysOrLessAfterFirstAnesthesia ( EncounterWithSurgery )         and Extubation.performed.toInterval ( ) starts more than 48 hours after end of Extubation.LatestGeneralAnesthesiaOrMAC ( ).performed.toInterval ( )         and not ( ( \"Extubation With Preceding Noninvasive Oxygen\".id contains Extubation.id )             and not ( \"Extubation During General Anesthesia\".id contains Extubation.id )         )         and EncounterWithSurgery.isNotAtProceduralHospitalLocation ( )"},{"url":"displaySequence","valueInteger":40}]},{"url":"http://hl7.org/fhir/StructureDefinition/cqf-logicDefinition","extension":[{"url":"libraryName","valueString":"CMS1218FHIRHHRF"},{"url":"name","valueString":"Encounter With Mechanical Ventilation Within 30 Days Of End Of First OR Procedure And Between 48 And 72 Hours After End Of OR Procedure And Not Preceded By Non Invasive Oxygen Therapy Or Anesthesia"},{"url":"statement","valueString":"define \"Encounter With Mechanical Ventilation Within 30 Days Of End Of First OR Procedure And Between 48 And 72 Hours After End Of OR Procedure And Not Preceded By Non Invasive Oxygen Therapy Or Anesthesia\":   \"Elective Inpatient Encounter With OR Procedure Within 3 Days\" EncounterWithSurgery     with [\"Procedure\": \"Mechanical Ventilation\"] Ventilation       such that Ventilation.status = 'completed'         and Ventilation.performed.toInterval ( ) starts 48 hours or more after end of Ventilation.LatestGeneralAnesthesiaOrMAC ( ).performed.toInterval ( )         and Ventilation.performed.toInterval ( ) starts 72 hours or less after end of Ventilation.LatestGeneralAnesthesiaOrMAC ( ).performed.toInterval ( )         and Ventilation.starts30DaysOrLessAfterFirstAnesthesia ( EncounterWithSurgery )         and Ventilation.startsDuringHospitalization ( EncounterWithSurgery )         and not ( \"Encounter With Mechanical Ventilation Outside Of Procedural Area Within 30 Days Of End Of First OR Procedure And Preceded By Non Invasive Oxygen Therapy\".id contains EncounterWithSurgery.id )         and EncounterWithSurgery.isNotAtProceduralHospitalLocation ( )"},{"url":"displaySequence","valueInteger":41}]},{"url":"http://hl7.org/fhir/StructureDefinition/cqf-logicDefinition","extension":[{"url":"libraryName","valueString":"CMS1218FHIRHHRF"},{"url":"name","valueString":"Numerator"},{"url":"statement","valueString":"define \"Numerator\":   \"Encounter With Intubation Outside Of Procedural Area Within 30 Days Of End Of First OR Procedure\"     union \"Encounter With Mechanical Ventilation Outside Of Procedural Area Within 30 Days Of End Of First OR Procedure And Preceded By Non Invasive Oxygen Therapy\"     union \"Encounter With Extubation Outside Of Procedural Area Within 30 Days Of End Of First OR Procedure More Than 48 Hours After End Of Anesthesia\"     union \"Encounter With Mechanical Ventilation Within 30 Days Of End Of First OR Procedure And Between 48 And 72 Hours After End Of OR Procedure And Not Preceded By Non Invasive Oxygen Therapy Or Anesthesia\""},{"url":"displaySequence","valueInteger":42}]},{"url":"http://hl7.org/fhir/StructureDefinition/cqf-logicDefinition","extension":[{"url":"libraryName","valueString":"CMS1218FHIRHHRF"},{"url":"name","valueString":"Denominator"},{"url":"statement","valueString":"define \"Denominator\":   \"Initial Population\""},{"url":"displaySequence","valueInteger":43}]},{"url":"http://hl7.org/fhir/StructureDefinition/cqf-logicDefinition","extension":[{"url":"libraryName","valueString":"CMS1218FHIRHHRF"},{"url":"name","valueString":"Risk Variable Encounter Procedures"},{"url":"statement","valueString":"define \"Risk Variable Encounter Procedures\":   from     [\"Procedure\"] TheProcedure,     \"Initial Population\" QualifyingEncounter     where TheProcedure.status = 'completed'       and TheProcedure.startsDuringHospitalization ( QualifyingEncounter )     return {       encounterId: QualifyingEncounter.id,       procedureId: TheProcedure.id,       procedureCode: TheProcedure.code,       procedureRank: TheProcedure.rank ( QualifyingEncounter ),       procedureTime: TheProcedure.performed.toInterval ( )     }"},{"url":"displaySequence","valueInteger":44}]},{"url":"http://hl7.org/fhir/StructureDefinition/cqf-logicDefinition","extension":[{"url":"libraryName","valueString":"CMS1218FHIRHHRF"},{"url":"name","valueString":"Risk Variable First Blood Urea Nitrogen In Encounter"},{"url":"statement","valueString":"define \"Risk Variable First Blood Urea Nitrogen In Encounter\":   \"Initial Population\" QualifyingEncounter     return Tuple {       encounterId: QualifyingEncounter.id,       firstBUN: QualifyingEncounter.FirstBloodUreaNitrogen ( )     }"},{"url":"displaySequence","valueInteger":45}]},{"url":"http://hl7.org/fhir/StructureDefinition/cqf-logicDefinition","extension":[{"url":"libraryName","valueString":"SupplementalDataElements"},{"url":"name","valueString":"SDE Ethnicity"},{"url":"statement","valueString":"define \"SDE Ethnicity\":   Patient.ethnicity E     return Tuple {       codes: { E.ombCategory } union E.detailed,       display: E.text     }"},{"url":"displaySequence","valueInteger":46}]},{"url":"http://hl7.org/fhir/StructureDefinition/cqf-logicDefinition","extension":[{"url":"libraryName","valueString":"CMS1218FHIRHHRF"},{"url":"name","valueString":"SDE Ethnicity"},{"url":"statement","valueString":"define \"SDE Ethnicity\":   SDE.\"SDE Ethnicity\""},{"url":"displaySequence","valueInteger":47}]},{"url":"http://hl7.org/fhir/StructureDefinition/cqf-logicDefinition","extension":[{"url":"libraryName","valueString":"CMS1218FHIRHHRF"},{"url":"name","valueString":"Encounter With Degenerative Neurological Disorder"},{"url":"statement","valueString":"define \"Encounter With Degenerative Neurological Disorder\":   \"Elective Inpatient Encounter With OR Procedure Within 3 Days\" EncounterWithSurgery     where EncounterWithSurgery.reasonCode in \"Degenerative Neurological Disorder\"       or EncounterWithSurgery.encounterReason ( ).code in \"Degenerative Neurological Disorder\""},{"url":"displaySequence","valueInteger":48}]},{"url":"http://hl7.org/fhir/StructureDefinition/cqf-logicDefinition","extension":[{"url":"libraryName","valueString":"CMS1218FHIRHHRF"},{"url":"name","valueString":"Encounter With High Risk To Airway Head Neck And Thoracic Surgery"},{"url":"statement","valueString":"define \"Encounter With High Risk To Airway Head Neck And Thoracic Surgery\":   \"Elective Inpatient Encounter With OR Procedure Within 3 Days\" EncounterWithSurgery     with [\"Procedure\": \"Head, Neck, And Thoracic Surgeries With High Risk Airway Compromise\"] HeadNeckProcedures       such that HeadNeckProcedures.status = 'completed'         and HeadNeckProcedures.startsDuringHospitalization ( EncounterWithSurgery )"},{"url":"displaySequence","valueInteger":49}]},{"url":"http://hl7.org/fhir/StructureDefinition/cqf-logicDefinition","extension":[{"url":"libraryName","valueString":"CMS1218FHIRHHRF"},{"url":"name","valueString":"Encounter With Mechanical Ventilation That Starts More Than One Hour Prior To Start Of First OR Procedure"},{"url":"statement","valueString":"define \"Encounter With Mechanical Ventilation That Starts More Than One Hour Prior To Start Of First OR Procedure\":   \"Elective Inpatient Encounter With OR Procedure Within 3 Days\" EncounterWithSurgery     with [\"Procedure\": \"Mechanical Ventilation\"] Ventilation       such that Ventilation.status = 'completed'         and Ventilation.performed.toInterval ( ) starts more than 1 hour before start of EncounterWithSurgery.FirstAnesthesiaDuringHospitalization ( ).performed.toInterval ( )         and Ventilation.startsDuringHospitalization ( EncounterWithSurgery )"},{"url":"displaySequence","valueInteger":50}]},{"url":"http://hl7.org/fhir/StructureDefinition/cqf-logicDefinition","extension":[{"url":"libraryName","valueString":"CMS1218FHIRHHRF"},{"url":"name","valueString":"Encounter With Neuromuscular Disorder"},{"url":"statement","valueString":"define \"Encounter With Neuromuscular Disorder\":   \"Elective Inpatient Encounter With OR Procedure Within 3 Days\" EncounterWithSurgery     where EncounterWithSurgery.reasonCode in \"Neuromuscular Disorder\"       or EncounterWithSurgery.encounterReason ( ).code in \"Neuromuscular Disorder\""},{"url":"displaySequence","valueInteger":51}]},{"url":"http://hl7.org/fhir/StructureDefinition/cqf-logicDefinition","extension":[{"url":"libraryName","valueString":"CMS1218FHIRHHRF"},{"url":"name","valueString":"Encounter With PaCO2 Greater Than 50 And Arterial pH Less Than 7.30 Within 48 Hours Prior To Start Of First OR Procedure"},{"url":"statement","valueString":"define \"Encounter With PaCO2 Greater Than 50 And Arterial pH Less Than 7.30 Within 48 Hours Prior To Start Of First OR Procedure\":   \"Elective Inpatient Encounter With OR Procedure Within 3 Days\" EncounterWithSurgery     let FirstProcedureTime: EncounterWithSurgery.FirstAnesthesiaDuringHospitalization ( ).performed.toInterval ( )     with [\"LaboratoryResultObservation\": \"Carbon Dioxide Partial Pressure In Arterial Blood\"] CarbonDioxide       such that CarbonDioxide.status in { 'final', 'amended', 'corrected' }         and CarbonDioxide.effective.toInterval ( ) starts 48 hours or less before start of FirstProcedureTime         and CarbonDioxide.value as Quantity > 50 'mm[Hg]'     with [\"LaboratoryResultObservation\": \"Arterial Blood pH\"] BloodpH       such that BloodpH.status in { 'final', 'amended', 'corrected' }         and BloodpH.effective.toInterval ( ) starts 48 hours or less before start of FirstProcedureTime         and BloodpH.value as Quantity < 7.30 '[pH]'"},{"url":"displaySequence","valueInteger":52}]},{"url":"http://hl7.org/fhir/StructureDefinition/cqf-logicDefinition","extension":[{"url":"libraryName","valueString":"CMS1218FHIRHHRF"},{"url":"name","valueString":"Encounter With PaO2 Less Than 50 Within 48 Hours Prior To Start Of First OR Procedure"},{"url":"statement","valueString":"define \"Encounter With PaO2 Less Than 50 Within 48 Hours Prior To Start Of First OR Procedure\":   \"Elective Inpatient Encounter With OR Procedure Within 3 Days\" EncounterWithSurgery     let FirstProcedure: EncounterWithSurgery.FirstAnesthesiaDuringHospitalization ( )     with [\"LaboratoryResultObservation\": \"Oxygen Partial Pressure In Arterial Blood\"] Oxygen       such that Oxygen.status in { 'final', 'amended', 'corrected' }         and Oxygen.effective.toInterval ( ) starts 48 hours or less before start of FirstProcedure.performed.toInterval ( )         and Oxygen.value as Quantity < 50 'mm[Hg]'"},{"url":"displaySequence","valueInteger":53}]},{"url":"http://hl7.org/fhir/StructureDefinition/cqf-logicDefinition","extension":[{"url":"libraryName","valueString":"CMS1218FHIRHHRF"},{"url":"name","valueString":"Encounter With Principal Diagnosis Of Acute Respiratory Failure"},{"url":"statement","valueString":"define \"Encounter With Principal Diagnosis Of Acute Respiratory Failure\":   \"Elective Inpatient Encounter With OR Procedure Within 3 Days\" EncounterWithSurgery     where EncounterWithSurgery.hasPrincipalDiagnosisOf ( \"Acute Respiratory Failure\" )"},{"url":"displaySequence","valueInteger":54}]},{"url":"http://hl7.org/fhir/StructureDefinition/cqf-logicDefinition","extension":[{"url":"libraryName","valueString":"CMS1218FHIRHHRF"},{"url":"name","valueString":"Encounter With Diagnosis Of Acute Respiratory Failure Present On Admission"},{"url":"statement","valueString":"define \"Encounter With Diagnosis Of Acute Respiratory Failure Present On Admission\":   \"Elective Inpatient Encounter With OR Procedure Within 3 Days\" EncounterWithSurgery     where EncounterWithSurgery.isDiagnosisPresentOnAdmission ( \"Acute Respiratory Failure\", \"Present On Admission Or Clinically Undetermined\" )"},{"url":"displaySequence","valueInteger":55}]},{"url":"http://hl7.org/fhir/StructureDefinition/cqf-logicDefinition","extension":[{"url":"libraryName","valueString":"CMS1218FHIRHHRF"},{"url":"name","valueString":"Encounter With Tracheostomy Present On Admission"},{"url":"statement","valueString":"define \"Encounter With Tracheostomy Present On Admission\":   \"Elective Inpatient Encounter With OR Procedure Within 3 Days\" EncounterWithSurgery     where EncounterWithSurgery.isDiagnosisPresentOnAdmission ( \"Tracheostomy Diagnoses\", \"Present On Admission Or Clinically Undetermined\" )"},{"url":"displaySequence","valueInteger":56}]},{"url":"http://hl7.org/fhir/StructureDefinition/cqf-logicDefinition","extension":[{"url":"libraryName","valueString":"CMS1218FHIRHHRF"},{"url":"name","valueString":"Encounter With Tracheostomy Before Day Of First OR Procedure"},{"url":"statement","valueString":"define \"Encounter With Tracheostomy Before Day Of First OR Procedure\":   \"Elective Inpatient Encounter With OR Procedure Within 3 Days\" EncounterWithSurgery     let FirstProcedure: EncounterWithSurgery.FirstAnesthesiaDuringHospitalization ( )     with [\"Procedure\": \"Tracheostomy Procedures\"] TracheostomySurgery       such that TracheostomySurgery.status = 'completed'         and TracheostomySurgery.startsDuringHospitalization ( EncounterWithSurgery )         and TracheostomySurgery.performed.toInterval ( ) starts before day of FirstProcedure.performed.toInterval ( )"},{"url":"displaySequence","valueInteger":57}]},{"url":"http://hl7.org/fhir/StructureDefinition/cqf-logicDefinition","extension":[{"url":"libraryName","valueString":"CMS1218FHIRHHRF"},{"url":"name","valueString":"Encounter With Tracheostomy Same Day Of First OR Procedure"},{"url":"statement","valueString":"define \"Encounter With Tracheostomy Same Day Of First OR Procedure\":   \"Elective Inpatient Encounter With OR Procedure Within 3 Days\" EncounterWithSurgery     let FirstProcedure: EncounterWithSurgery.FirstAnesthesiaDuringHospitalization ( )     with [\"Procedure\": \"Tracheostomy Procedures\"] TracheostomySurgery       such that TracheostomySurgery.status = 'completed'         and TracheostomySurgery.startsDuringHospitalization ( EncounterWithSurgery )         and TracheostomySurgery.performed.toInterval ( ) starts during day of FirstProcedure.performed.toInterval ( )"},{"url":"displaySequence","valueInteger":58}]},{"url":"http://hl7.org/fhir/StructureDefinition/cqf-logicDefinition","extension":[{"url":"libraryName","valueString":"CMS1218FHIRHHRF"},{"url":"name","valueString":"Encounter With Tracheostomy Prior To Or On The Same Day Of First OR Procedure"},{"url":"statement","valueString":"define \"Encounter With Tracheostomy Prior To Or On The Same Day Of First OR Procedure\":   \"Encounter With Tracheostomy Before Day Of First OR Procedure\"     union \"Encounter With Tracheostomy Same Day Of First OR Procedure\""},{"url":"displaySequence","valueInteger":59}]},{"url":"http://hl7.org/fhir/StructureDefinition/cqf-logicDefinition","extension":[{"url":"libraryName","valueString":"CMS1218FHIRHHRF"},{"url":"name","valueString":"Denominator Exclusions"},{"url":"statement","valueString":"define \"Denominator Exclusions\":   \"Encounter With Degenerative Neurological Disorder\"     union \"Encounter With High Risk To Airway Head Neck And Thoracic Surgery\"     union \"Encounter With Mechanical Ventilation That Starts More Than One Hour Prior To Start Of First OR Procedure\"     union \"Encounter With Neuromuscular Disorder\"     union \"Encounter With PaCO2 Greater Than 50 And Arterial pH Less Than 7.30 Within 48 Hours Prior To Start Of First OR Procedure\"     union \"Encounter With PaO2 Less Than 50 Within 48 Hours Prior To Start Of First OR Procedure\"     union \"Encounter With Principal Diagnosis Of Acute Respiratory Failure\"     union \"Encounter With Diagnosis Of Acute Respiratory Failure Present On Admission\"     union \"Encounter With Tracheostomy Present On Admission\"     union \"Encounter With Tracheostomy Prior To Or On The Same Day Of First OR Procedure\""},{"url":"displaySequence","valueInteger":60}]},{"url":"http://hl7.org/fhir/StructureDefinition/cqf-logicDefinition","extension":[{"url":"libraryName","valueString":"CMS1218FHIRHHRF"},{"url":"name","valueString":"Risk Variable First AST In Encounter"},{"url":"statement","valueString":"define \"Risk Variable First AST In Encounter\":   \"Initial Population\" QualifyingEncounter     return Tuple {       encounterId: QualifyingEncounter.id,       firstAST: QualifyingEncounter.FirstAST ( )     }"},{"url":"displaySequence","valueInteger":61}]},{"url":"http://hl7.org/fhir/StructureDefinition/cqf-logicDefinition","extension":[{"url":"libraryName","valueString":"CMS1218FHIRHHRF"},{"url":"name","valueString":"Risk Variable First Platelet Count In Encounter"},{"url":"statement","valueString":"define \"Risk Variable First Platelet Count In Encounter\":   \"Initial Population\" QualifyingEncounter     return Tuple {       encounterId: QualifyingEncounter.id,       firstPlatelet: QualifyingEncounter.FirstPlatelet ( )     }"},{"url":"displaySequence","valueInteger":62}]},{"url":"http://hl7.org/fhir/StructureDefinition/cqf-logicDefinition","extension":[{"url":"libraryName","valueString":"FHIRHelpers"},{"url":"name","valueString":"ToInterval"},{"url":"statement","valueString":"/* @description: Converts the given [Period](https://hl7.org/fhir/datatypes.html#Period) value to a CQL DateTime Interval @comment: If the start value of the given period is unspecified, the starting boundary of the resulting interval will be open (meaning the start of the interval is unknown, as opposed to interpreted as the beginning of time). */ define function ToInterval(period FHIR.Period):     if period is null then         null     else         if period.\"start\" is null then             Interval(period.\"start\".value, period.\"end\".value]         else             Interval[period.\"start\".value, period.\"end\".value]"},{"url":"displaySequence","valueInteger":63}]},{"url":"http://hl7.org/fhir/StructureDefinition/cqf-logicDefinition","extension":[{"url":"libraryName","valueString":"FHIRHelpers"},{"url":"name","valueString":"ToConcept"},{"url":"statement","valueString":"/* @description: Converts the given FHIR [CodeableConcept](https://hl7.org/fhir/datatypes.html#CodeableConcept) value to a CQL Concept. */ define function ToConcept(concept FHIR.CodeableConcept):     if concept is null then         null     else         System.Concept {             codes: concept.coding C return ToCode(C),             display: concept.text.value         }"},{"url":"displaySequence","valueInteger":64}]},{"url":"http://hl7.org/fhir/StructureDefinition/cqf-logicDefinition","extension":[{"url":"libraryName","valueString":"FHIRHelpers"},{"url":"name","valueString":"ToCode"},{"url":"statement","valueString":"/* @description: Converts the given FHIR [Coding](https://hl7.org/fhir/datatypes.html#Coding) value to a CQL Code. */ define function ToCode(coding FHIR.Coding):     if coding is null then         null     else         System.Code {           code: coding.code.value,           system: coding.system.value,           version: coding.version.value,           display: coding.display.value         }"},{"url":"displaySequence","valueInteger":65}]},{"url":"http://hl7.org/fhir/StructureDefinition/cqf-logicDefinition","extension":[{"url":"libraryName","valueString":"CMS1218FHIRHHRF"},{"url":"name","valueString":"encounterReason"},{"url":"statement","valueString":"define fluent function encounterReason(Encounter Encounter):   // There is a problem in the CQMCommon fluent function 'encounterDiagnosis' wherein the union operation isn't working as used.   // This function fixes that usage, but should be considered temporary until the library function works properly            Encounter.reasonReference D     return singleton from ( ( [ConditionEncounterDiagnosis] cA         union [ConditionProblemsHealthConcerns] cB ) C         where D.references ( C.id )     )"},{"url":"displaySequence","valueInteger":66}]},{"url":"http://hl7.org/fhir/StructureDefinition/cqf-logicDefinition","extension":[{"url":"libraryName","valueString":"QICoreCommon"},{"url":"name","valueString":"references"},{"url":"statement","valueString":"/* @description: Returns true if the given reference is to the given resourceId @comment: Returns true if the `resourceId` parameter exactly equals the tail of the given reference. NOTE: This function assumes resources from the same source server. */ define fluent function references(reference Reference, resourceId String):   resourceId = Last(Split(reference.reference, '/'))"},{"url":"displaySequence","valueInteger":67}]},{"url":"http://hl7.org/fhir/StructureDefinition/cqf-logicDefinition","extension":[{"url":"libraryName","valueString":"QICoreCommon"},{"url":"name","valueString":"earliest"},{"url":"statement","valueString":"/* @description: Given an interval, return the starting point if the interval has a starting boundary specified, otherwise, return the ending point */ define fluent function earliest(choice Choice<DateTime, Quantity, Interval<DateTime>, Interval<Quantity>> ):   (choice.toInterval()) period     return       if (period.\"hasStart\"()) then start of period       else end of period"},{"url":"displaySequence","valueInteger":68}]},{"url":"http://hl7.org/fhir/StructureDefinition/cqf-logicDefinition","extension":[{"url":"libraryName","valueString":"QICoreCommon"},{"url":"name","valueString":"hasStart"},{"url":"statement","valueString":"/* @description: Given an interval, return true if the interval has a starting boundary specified (i.e. the start of the interval is not null and not the minimum DateTime value) */ define fluent function hasStart(period Interval<DateTime> ):   not ( start of period is null       or start of period = minimum DateTime   )"},{"url":"displaySequence","valueInteger":69}]},{"url":"http://hl7.org/fhir/StructureDefinition/cqf-logicDefinition","extension":[{"url":"libraryName","valueString":"CQMCommon"},{"url":"name","valueString":"hospitalizationWithObservationAndOutpatientSurgeryService"},{"url":"statement","valueString":"/* @description: Hospitalization with Observation and Outpatient Surgery Service returns the total interval from the start of any immediately prior emergency department visit, outpatient surgery visit or observation visit to the discharge of the given encounter. */ define fluent function hospitalizationWithObservationAndOutpatientSurgeryService(TheEncounter \"Encounter\" ):   TheEncounter Visit    let ObsVisit: Last([Encounter: \"Observation Services\"] LastObs      where LastObs.status = 'finished'           and LastObs.period ends 1 hour or less on or before start of Visit.period      sort by end of period      ),      VisitStart: Coalesce(start of ObsVisit.period, start of Visit.period),      EDVisit: Last([Encounter: \"Emergency Department Visit\"] LastED      where LastED.status = 'finished'           and LastED.period ends 1 hour or less on or before VisitStart      sort by end of period      ),      VisitStartWithED: Coalesce(start of EDVisit.period, VisitStart),      OutpatientSurgeryVisit: Last([Encounter: \"Outpatient Surgery Service\"] LastSurgeryOP      where LastSurgeryOP.period ends 1 hour or less on or before VisitStartWithED      sort by end of period      )    return Interval[Coalesce(start of OutpatientSurgeryVisit.period, VisitStartWithED), end of Visit.period]"},{"url":"displaySequence","valueInteger":70}]},{"url":"http://hl7.org/fhir/StructureDefinition/cqf-logicDefinition","extension":[{"url":"libraryName","valueString":"CMS1218FHIRHHRF"},{"url":"name","valueString":"FirstRespiratoryRate"},{"url":"statement","valueString":"define fluent function FirstRespiratoryRate(QualifyingEncounter Encounter):   First([USCoreRespiratoryRateProfile: \"Respiratory rate\"] FirstRespiration       where FirstRespiration.status in { 'final', 'amended', 'corrected' }         and FirstRespiration.effective.earliest() during QualifyingEncounter.hospitalizationWithObservation()         and FirstRespiration.value is not null       sort by effective.earliest()   ).value as Quantity"},{"url":"displaySequence","valueInteger":71}]},{"url":"http://hl7.org/fhir/StructureDefinition/cqf-logicDefinition","extension":[{"url":"libraryName","valueString":"CQMCommon"},{"url":"name","valueString":"hospitalizationWithObservation"},{"url":"statement","valueString":"/* @description: Hospitalization with Observation returns the total interval from the start of any immediately prior emergency department visit through the observation visit to the discharge of the given encounter */ define fluent function hospitalizationWithObservation(TheEncounter Encounter ):   TheEncounter Visit     let ObsVisit: Last([Encounter: \"Observation Services\"] LastObs       where LastObs.status = 'finished'             and LastObs.period ends 1 hour or less on or before start of Visit.period       sort by end of period      ),      VisitStart: Coalesce(start of ObsVisit.period, start of Visit.period),      EDVisit: Last([Encounter: \"Emergency Department Visit\"] LastED       where LastED.status = 'finished'             and LastED.period ends 1 hour or less on or before VisitStart       sort by end of period      )     return Interval[Coalesce(start of EDVisit.period, VisitStart), end of Visit.period]"},{"url":"displaySequence","valueInteger":72}]},{"url":"http://hl7.org/fhir/StructureDefinition/cqf-logicDefinition","extension":[{"url":"libraryName","valueString":"CMS1218FHIRHHRF"},{"url":"name","valueString":"FirstAlbumin"},{"url":"statement","valueString":"define fluent function FirstAlbumin(QualifyingEncounter Encounter):   First([LaboratoryResultObservation: \"Albumin Lab Test\"] FirstAlbuminTest       where FirstAlbuminTest.status in { 'final', 'amended', 'corrected' }         and FirstAlbuminTest.isEarliestDuringHospitalization(QualifyingEncounter)       sort by effective.earliest()   ).value as Quantity"},{"url":"displaySequence","valueInteger":73}]},{"url":"http://hl7.org/fhir/StructureDefinition/cqf-logicDefinition","extension":[{"url":"libraryName","valueString":"CMS1218FHIRHHRF"},{"url":"name","valueString":"isEarliestDuringHospitalization"},{"url":"statement","valueString":"define fluent function isEarliestDuringHospitalization(choice Choice<Procedure, LaboratoryResultObservation>, encounter Encounter):   case     when choice is Procedure then ( choice as Procedure ).earliestIsDuringHospitalization ( encounter )     when choice is LaboratoryResultObservation then ( choice as LaboratoryResultObservation ).earliestOccursDuringHospitalization ( encounter )      else false end"},{"url":"displaySequence","valueInteger":74}]},{"url":"http://hl7.org/fhir/StructureDefinition/cqf-logicDefinition","extension":[{"url":"libraryName","valueString":"CMS1218FHIRHHRF"},{"url":"name","valueString":"earliestIsDuringHospitalization"},{"url":"statement","valueString":"define fluent function earliestIsDuringHospitalization(procedure Procedure, encounter Encounter):   procedure.performed.earliest ( ) during encounter.hospitalizationWithObservationAndOutpatientSurgeryService ( )     and procedure.partOf is not null"},{"url":"displaySequence","valueInteger":75}]},{"url":"http://hl7.org/fhir/StructureDefinition/cqf-logicDefinition","extension":[{"url":"libraryName","valueString":"CMS1218FHIRHHRF"},{"url":"name","valueString":"earliestOccursDuringHospitalization"},{"url":"statement","valueString":"define fluent function earliestOccursDuringHospitalization(observation LaboratoryResultObservation, encounter Encounter):   observation.effective.earliest ( ) during encounter.hospitalizationWithObservationAndOutpatientSurgeryService ( )     and observation.value is not null"},{"url":"displaySequence","valueInteger":76}]},{"url":"http://hl7.org/fhir/StructureDefinition/cqf-logicDefinition","extension":[{"url":"libraryName","valueString":"CMS1218FHIRHHRF"},{"url":"name","valueString":"FirstArterialpH"},{"url":"statement","valueString":"define fluent function FirstArterialpH(QualifyingEncounter Encounter):   First([LaboratoryResultObservation: \"Arterial Blood pH\"] FirstArterialpHTest       where FirstArterialpHTest.status in { 'final', 'amended', 'corrected' }         and FirstArterialpHTest.isEarliestDuringHospitalization(QualifyingEncounter)       sort by effective.earliest()   ).value as Quantity"},{"url":"displaySequence","valueInteger":77}]},{"url":"http://hl7.org/fhir/StructureDefinition/cqf-logicDefinition","extension":[{"url":"libraryName","valueString":"CMS1218FHIRHHRF"},{"url":"name","valueString":"FirstBodyTemperature"},{"url":"statement","valueString":"define fluent function FirstBodyTemperature(QualifyingEncounter Encounter):   First([\"USCoreBodyTemperatureProfile\": \"Body temperature\"] FirstTemperature       where FirstTemperature.status in { 'final', 'amended', 'corrected' }         and FirstTemperature.effective.earliest() during QualifyingEncounter.hospitalizationWithObservation()         and FirstTemperature.value is not null       sort by effective.earliest()   ).value as Quantity"},{"url":"displaySequence","valueInteger":78}]},{"url":"http://hl7.org/fhir/StructureDefinition/cqf-logicDefinition","extension":[{"url":"libraryName","valueString":"CMS1218FHIRHHRF"},{"url":"name","valueString":"FirstCarbonDioxide"},{"url":"statement","valueString":"define fluent function FirstCarbonDioxide(QualifyingEncounter Encounter):   First([LaboratoryResultObservation: \"Carbon Dioxide Partial Pressure In Arterial Blood\"] FirstCarbonDioxideTest       where FirstCarbonDioxideTest.status in { 'final', 'amended', 'corrected' }         and FirstCarbonDioxideTest.isEarliestDuringHospitalization(QualifyingEncounter)       sort by effective.earliest()   ).value as Quantity"},{"url":"displaySequence","valueInteger":79}]},{"url":"http://hl7.org/fhir/StructureDefinition/cqf-logicDefinition","extension":[{"url":"libraryName","valueString":"CMS1218FHIRHHRF"},{"url":"name","valueString":"FirstHematocrit"},{"url":"statement","valueString":"define fluent function FirstHematocrit(QualifyingEncounter Encounter):   First([LaboratoryResultObservation: \"Hematocrit Lab Test\"] FirstHematocritTest       where FirstHematocritTest.status in { 'final', 'amended', 'corrected' }         and FirstHematocritTest.isEarliestDuringHospitalization(QualifyingEncounter)       sort by effective.earliest()   ).value as Quantity"},{"url":"displaySequence","valueInteger":80}]},{"url":"http://hl7.org/fhir/StructureDefinition/cqf-logicDefinition","extension":[{"url":"libraryName","valueString":"CMS1218FHIRHHRF"},{"url":"name","valueString":"FirstHeartRate"},{"url":"statement","valueString":"define fluent function FirstHeartRate(QualifyingEncounter Encounter):   First([\"USCoreHeartRateProfile\": \"Heart rate\"] FirstHeartBeats       where FirstHeartBeats.status in { 'final', 'amended', 'corrected' }         and FirstHeartBeats.effective.earliest() during QualifyingEncounter.hospitalizationWithObservation()         and FirstHeartBeats.value is not null       sort by effective.earliest()   ).value as Quantity"},{"url":"displaySequence","valueInteger":81}]},{"url":"http://hl7.org/fhir/StructureDefinition/cqf-logicDefinition","extension":[{"url":"libraryName","valueString":"CMS1218FHIRHHRF"},{"url":"name","valueString":"FirstBMI"},{"url":"statement","valueString":"define fluent function FirstBMI(QualifyingEncounter Encounter):   First([USCoreBMIProfile: \"Body mass index (BMI) [Ratio]\"] FirstBodyMass       where FirstBodyMass.status in { 'final', 'amended', 'corrected' }         and FirstBodyMass.effective.toInterval() starts during CQMCommon.\"HospitalizationWithObservation\"(QualifyingEncounter)         and FirstBodyMass.value is not null       sort by effective.earliest()   ).value as Quantity"},{"url":"displaySequence","valueInteger":82}]},{"url":"http://hl7.org/fhir/StructureDefinition/cqf-logicDefinition","extension":[{"url":"libraryName","valueString":"CQMCommon"},{"url":"name","valueString":"HospitalizationWithObservation"},{"url":"statement","valueString":"/* @description: Hospitalization with Observation returns the total interval from the start of any immediately prior emergency department visit through the observation visit to the discharge of the given encounter @deprecated: This function is deprecated. Use the fluent function `hospitalizationWithObservation()` instead. */ define function \"HospitalizationWithObservation\"(TheEncounter Encounter ):   TheEncounter Visit     let ObsVisit: Last([Encounter: \"Observation Services\"] LastObs       where LastObs.status = 'finished'             and LastObs.period ends 1 hour or less on or before start of Visit.period       sort by end of period      ),      VisitStart: Coalesce(start of ObsVisit.period, start of Visit.period),      EDVisit: Last([Encounter: \"Emergency Department Visit\"] LastED       where LastED.status = 'finished'             and LastED.period ends 1 hour or less on or before VisitStart       sort by end of period      )     return Interval[Coalesce(start of EDVisit.period, VisitStart), end of Visit.period]"},{"url":"displaySequence","valueInteger":83}]},{"url":"http://hl7.org/fhir/StructureDefinition/cqf-logicDefinition","extension":[{"url":"libraryName","valueString":"CMS1218FHIRHHRF"},{"url":"name","valueString":"FirstHemoglobin"},{"url":"statement","valueString":"define fluent function FirstHemoglobin(QualifyingEncounter Encounter):   First([LaboratoryResultObservation: \"Hemoglobin Lab Test\"] FirstHemoglobinTest       where FirstHemoglobinTest.status in { 'final', 'amended', 'corrected' }         and FirstHemoglobinTest.isEarliestDuringHospitalization(QualifyingEncounter)       sort by effective.earliest()   ).value as Quantity"},{"url":"displaySequence","valueInteger":84}]},{"url":"http://hl7.org/fhir/StructureDefinition/cqf-logicDefinition","extension":[{"url":"libraryName","valueString":"CMS1218FHIRHHRF"},{"url":"name","valueString":"claimDiagnosesWithPOA"},{"url":"statement","valueString":"define fluent function claimDiagnosesWithPOA(encounter Encounter):   encounter E     let claim: ( [Claim] C         where C.status = 'active'           and C.use = 'claim'           and exists ( C.item I               where I.encounter.references ( E )           )     ),     claimItem: ( claim.item I         where I.encounter.references ( E )     )     return claim.diagnosis D       where D.sequence in claimItem.diagnosisSequence         and D.onAdmission is not null"},{"url":"displaySequence","valueInteger":85}]},{"url":"http://hl7.org/fhir/StructureDefinition/cqf-logicDefinition","extension":[{"url":"libraryName","valueString":"QICoreCommon"},{"url":"name","valueString":"references"},{"url":"statement","valueString":"/* @description: Returns true if any of the given references are to the given resource @comment: Returns true if the `id` element of the given resource exactly equals the tail of any of the given references. NOTE: This function assumes resources from the same source server. */ define fluent function references(references List<Reference>, resource Resource):   exists (references R where R.references(resource))"},{"url":"displaySequence","valueInteger":86}]},{"url":"http://hl7.org/fhir/StructureDefinition/cqf-logicDefinition","extension":[{"url":"libraryName","valueString":"QICoreCommon"},{"url":"name","valueString":"references"},{"url":"statement","valueString":"/* @description: Returns true if the given reference is to the given resource @comment: Returns true if the `id` element of the given resource exactly equals the tail of the given reference. NOTE: This function assumes resources from the same source server. */ define fluent function references(reference Reference, resource Resource):   resource.id = Last(Split(reference.reference, '/'))"},{"url":"displaySequence","valueInteger":87}]},{"url":"http://hl7.org/fhir/StructureDefinition/cqf-logicDefinition","extension":[{"url":"libraryName","valueString":"CMS1218FHIRHHRF"},{"url":"name","valueString":"FirstSodium"},{"url":"statement","valueString":"define fluent function FirstSodium(QualifyingEncounter Encounter):   First([LaboratoryResultObservation: \"Sodium Lab Test\"] FirstSodiumTest       where FirstSodiumTest.status in { 'final', 'amended', 'corrected' }         and FirstSodiumTest.isEarliestDuringHospitalization(QualifyingEncounter)       sort by effective.earliest()   ).value as Quantity"},{"url":"displaySequence","valueInteger":88}]},{"url":"http://hl7.org/fhir/StructureDefinition/cqf-logicDefinition","extension":[{"url":"libraryName","valueString":"CMS1218FHIRHHRF"},{"url":"name","valueString":"FirstCreatinine"},{"url":"statement","valueString":"define fluent function FirstCreatinine(QualifyingEncounter Encounter):   First([LaboratoryResultObservation: \"Creatinine Lab Test\"] FirstCreatinineTest       where FirstCreatinineTest.status in { 'final', 'amended', 'corrected' }         and FirstCreatinineTest.isEarliestDuringHospitalization(QualifyingEncounter)       sort by effective.earliest()   ).value as Quantity"},{"url":"displaySequence","valueInteger":89}]},{"url":"http://hl7.org/fhir/StructureDefinition/cqf-logicDefinition","extension":[{"url":"libraryName","valueString":"CMS1218FHIRHHRF"},{"url":"name","valueString":"FirstWhiteBloodCellCount"},{"url":"statement","valueString":"define fluent function FirstWhiteBloodCellCount(QualifyingEncounter Encounter):   First([LaboratoryResultObservation: \"White Blood Cells Count Lab Test\"] FirstWBCCount       where FirstWBCCount.status in { 'final', 'amended', 'corrected' }         and FirstWBCCount.isEarliestDuringHospitalization(QualifyingEncounter)       sort by effective.earliest()   ).value as Quantity"},{"url":"displaySequence","valueInteger":90}]},{"url":"http://hl7.org/fhir/StructureDefinition/cqf-logicDefinition","extension":[{"url":"libraryName","valueString":"CMS1218FHIRHHRF"},{"url":"name","valueString":"startsDuringHospitalization"},{"url":"statement","valueString":"define fluent function startsDuringHospitalization(choice Choice<Procedure, LaboratoryResultObservation, ObservationScreeningAssessment>, enc Encounter):   case     when choice is Procedure then ( choice as Procedure ).performed.toInterval ( ) starts during CQMCommon.\"HospitalizationWithObservationAndOutpatientSurgeryService\" ( enc )     when choice is LaboratoryResultObservation then ( choice as LaboratoryResultObservation ).effective.toInterval ( ) starts during CQMCommon.\"HospitalizationWithObservationAndOutpatientSurgeryService\" ( enc )     when choice is ObservationScreeningAssessment then ( choice as ObservationScreeningAssessment ).effective.toInterval ( ) starts during CQMCommon.\"HospitalizationWithObservationAndOutpatientSurgeryService\" ( enc )      else false end"},{"url":"displaySequence","valueInteger":91}]},{"url":"http://hl7.org/fhir/StructureDefinition/cqf-logicDefinition","extension":[{"url":"libraryName","valueString":"QICoreCommon"},{"url":"name","valueString":"toInterval"},{"url":"statement","valueString":"/* @description: Normalizes a value that is a choice of timing-valued types to an equivalent interval @comment: Normalizes a choice type of DateTime, Quanitty, Interval<DateTime>, or Interval<Quantity> types to an equivalent interval. This selection of choice types is a superset of the majority of choice types that are used as possible representations for timing-valued elements in QICore, allowing this function to be used across any resource. The input can be provided as a DateTime, Quantity, Interval<DateTime> or Interval<Quantity>. The intent of this function is to provide a clear and concise mechanism to treat single elements that have multiple possible representations as intervals so that logic doesn't have to account for the variability. More complex calculations (such as medication request period or dispense period calculation) need specific guidance and consideration. That guidance may make use of this function, but the focus of this function is on single element calculations where the semantics are unambiguous. If the input is a DateTime, the result a DateTime Interval beginning and ending on that DateTime. If the input is a Quantity, the quantity is expected to be a calendar-duration interpreted as an Age, and the result is a DateTime Interval beginning on the Date the patient turned that age and ending immediately before one year later. If the input is a DateTime Interval, the result is the input. If the input is a Quantity Interval, the quantities are expected to be calendar-durations interpreted as an Age, and the result is a DateTime Interval beginning on the date the patient turned the age given as the start of the quantity interval, and ending immediately before one year later than the date the patient turned the age given as the end of the quantity interval. If the input is a Timing, an error will be thrown indicating that Timing calculations are not implemented. Any other input will reslt in a null DateTime Interval */ define fluent function toInterval(choice Choice<DateTime, Quantity, Interval<DateTime>, Interval<Quantity>, Timing>):   case    when choice is DateTime then      Interval[choice as DateTime, choice as DateTime]   when choice is Interval<DateTime> then     choice as Interval<DateTime>   when choice is Quantity then     Interval[Patient.birthDate + (choice as Quantity),      Patient.birthDate + (choice as Quantity) + 1 year)   when choice is Interval<Quantity> then     Interval[Patient.birthDate + (choice.low as Quantity),      Patient.birthDate + (choice.high as Quantity) + 1 year)   when choice is Timing then       Message(null, true, 'NOT_IMPLEMENTED', 'Error', 'Calculation of an interval from a Timing value is not supported') as Interval<DateTime>   else    null as Interval<DateTime>  end"},{"url":"displaySequence","valueInteger":92}]},{"url":"http://hl7.org/fhir/StructureDefinition/cqf-logicDefinition","extension":[{"url":"libraryName","valueString":"CQMCommon"},{"url":"name","valueString":"HospitalizationWithObservationAndOutpatientSurgeryService"},{"url":"statement","valueString":"/* @description: Hospitalization with Observation and Outpatient Surgery Service returns the total interval from the start of any immediately prior emergency department visit, outpatient surgery visit or observation visit to the discharge of the given encounter. @deprecated: This function is deprecated. Use the fluent function `hospitalizationWithObservationAndOutpatientSurgeryService()` instead. */ define function \"HospitalizationWithObservationAndOutpatientSurgeryService\"(TheEncounter \"Encounter\" ):   TheEncounter Visit    let ObsVisit: Last([Encounter: \"Observation Services\"] LastObs      where LastObs.status = 'finished'           and LastObs.period ends 1 hour or less on or before start of Visit.period      sort by end of period      ),      VisitStart: Coalesce(start of ObsVisit.period, start of Visit.period),      EDVisit: Last([Encounter: \"Emergency Department Visit\"] LastED      where LastED.status = 'finished'           and LastED.period ends 1 hour or less on or before VisitStart      sort by end of period      ),      VisitStartWithED: Coalesce(start of EDVisit.period, VisitStart),      OutpatientSurgeryVisit: Last([Encounter: \"Outpatient Surgery Service\"] LastSurgeryOP      where LastSurgeryOP.period ends 1 hour or less on or before VisitStartWithED      sort by end of period      )    return Interval[Coalesce(start of OutpatientSurgeryVisit.period, VisitStartWithED), end of Visit.period]"},{"url":"displaySequence","valueInteger":93}]},{"url":"http://hl7.org/fhir/StructureDefinition/cqf-logicDefinition","extension":[{"url":"libraryName","valueString":"CMS1218FHIRHHRF"},{"url":"name","valueString":"rank"},{"url":"statement","valueString":"define fluent function rank(targetProcedure Procedure, parentEncounter Encounter):   singleton from ( targetProcedure P       let claim: ( [Claim] C           where C.status = 'active'             and C.use = 'claim'             and exists ( C.item I                 where I.encounter.references ( parentEncounter )             )       ),       claimProc: ( claim.procedure proc           where proc.procedure.references ( P )       )       return claimProc.sequence R   )"},{"url":"displaySequence","valueInteger":94}]},{"url":"http://hl7.org/fhir/StructureDefinition/cqf-logicDefinition","extension":[{"url":"libraryName","valueString":"CMS1218FHIRHHRF"},{"url":"name","valueString":"FirstBicarbonate"},{"url":"statement","valueString":"define fluent function FirstBicarbonate(QualifyingEncounter Encounter):   First([LaboratoryResultObservation: \"Bicarbonate Lab Test\"] FirstBicarbonateTest       where FirstBicarbonateTest.status in { 'final', 'amended', 'corrected' }         and FirstBicarbonateTest.isEarliestDuringHospitalization(QualifyingEncounter)       sort by effective.earliest()   ).value as Quantity"},{"url":"displaySequence","valueInteger":95}]},{"url":"http://hl7.org/fhir/StructureDefinition/cqf-logicDefinition","extension":[{"url":"libraryName","valueString":"CMS1218FHIRHHRF"},{"url":"name","valueString":"FirstBilirubin"},{"url":"statement","valueString":"define fluent function FirstBilirubin(QualifyingEncounter Encounter):   First([LaboratoryResultObservation: \"Bilirubin Lab Test\"] FirstBilirubinTest       where FirstBilirubinTest.status in { 'final', 'amended', 'corrected' }         and FirstBilirubinTest.isEarliestDuringHospitalization(QualifyingEncounter)       sort by effective.earliest()   ).value as Quantity"},{"url":"displaySequence","valueInteger":96}]},{"url":"http://hl7.org/fhir/StructureDefinition/cqf-logicDefinition","extension":[{"url":"libraryName","valueString":"CMS1218FHIRHHRF"},{"url":"name","valueString":"FirstSystolicBloodPressure"},{"url":"statement","valueString":"define fluent function \"FirstSystolicBloodPressure\"(QualifyingEncounter Encounter):   First(\"Qualifying Systolic Blood Pressure Reading\" SBPReading       where SBPReading.status in { 'final', 'amended', 'corrected' }         and SBPReading.effective.earliest() during QualifyingEncounter.hospitalizationWithObservation()       return singleton from(SBPReading.component SBPComponent           where SBPComponent.code ~ \"Systolic blood pressure\"           return SBPComponent.value as Quantity       )   )"},{"url":"displaySequence","valueInteger":97}]},{"url":"http://hl7.org/fhir/StructureDefinition/cqf-logicDefinition","extension":[{"url":"libraryName","valueString":"CMS1218FHIRHHRF"},{"url":"name","valueString":"FirstOxygen"},{"url":"statement","valueString":"define fluent function FirstOxygen(QualifyingEncounter Encounter):   First([LaboratoryResultObservation: \"Oxygen Partial Pressure In Arterial Blood\"] FirstOxygenTest       where FirstOxygenTest.status in { 'final', 'amended', 'corrected' }         and FirstOxygenTest.isEarliestDuringHospitalization(QualifyingEncounter)       sort by effective.earliest()   ).value as Quantity"},{"url":"displaySequence","valueInteger":98}]},{"url":"http://hl7.org/fhir/StructureDefinition/cqf-logicDefinition","extension":[{"url":"libraryName","valueString":"CMS1218FHIRHHRF"},{"url":"name","valueString":"FirstLeukocyte"},{"url":"statement","valueString":"define fluent function FirstLeukocyte(QualifyingEncounter Encounter):   First([LaboratoryResultObservation: \"Leukocyte Count Lab Test\"] FirstLeukocyteCount       where FirstLeukocyteCount.status in { 'final', 'amended', 'corrected' }         and FirstLeukocyteCount.isEarliestDuringHospitalization(QualifyingEncounter)       sort by effective.earliest()   ).value as Quantity"},{"url":"displaySequence","valueInteger":99}]},{"url":"http://hl7.org/fhir/StructureDefinition/cqf-logicDefinition","extension":[{"url":"libraryName","valueString":"FHIRHelpers"},{"url":"name","valueString":"ToString"},{"url":"statement","valueString":"define function ToString(value uri): value.value"},{"url":"displaySequence","valueInteger":100}]},{"url":"http://hl7.org/fhir/StructureDefinition/cqf-logicDefinition","extension":[{"url":"libraryName","valueString":"CMS1218FHIRHHRF"},{"url":"name","valueString":"starts30DaysOrLessAfterFirstAnesthesia"},{"url":"statement","valueString":"define fluent function starts30DaysOrLessAfterFirstAnesthesia(procedure Procedure, encounter Encounter):   procedure.performed.toInterval ( ) starts 30 days or less after end of encounter.FirstAnesthesiaDuringHospitalization ( ).performed.toInterval ( )"},{"url":"displaySequence","valueInteger":101}]},{"url":"http://hl7.org/fhir/StructureDefinition/cqf-logicDefinition","extension":[{"url":"libraryName","valueString":"CMS1218FHIRHHRF"},{"url":"name","valueString":"FirstAnesthesiaDuringHospitalization"},{"url":"statement","valueString":"define fluent function \"FirstAnesthesiaDuringHospitalization\"(QualifyingEncounter Encounter):   First(\"Anesthesia Procedure List\" anesthesia       where anesthesia.status = 'completed'         and anesthesia.startsDuringHospitalization(QualifyingEncounter)       sort by start of performed.toInterval()   )"},{"url":"displaySequence","valueInteger":102}]},{"url":"http://hl7.org/fhir/StructureDefinition/cqf-logicDefinition","extension":[{"url":"libraryName","valueString":"QICoreCommon"},{"url":"name","valueString":"latest"},{"url":"statement","valueString":"/* @description: Given an interval, returns the ending point if the interval has an ending boundary specified, otherwise, returns the starting point */ define fluent function latest(choice Choice<DateTime, Quantity, Interval<DateTime>, Interval<Quantity>> ):   (choice.toInterval()) period     return       if (period.\"hasEnd\"()) then end of period       else start of period"},{"url":"displaySequence","valueInteger":103}]},{"url":"http://hl7.org/fhir/StructureDefinition/cqf-logicDefinition","extension":[{"url":"libraryName","valueString":"QICoreCommon"},{"url":"name","valueString":"hasEnd"},{"url":"statement","valueString":"/* @description: Given an interval, returns true if the interval has an ending boundary specified (i.e. the end of the interval is not null and not the maximum DateTime value) */ define fluent function hasEnd(period Interval<DateTime> ):   not (     end of period is null       or end of period = maximum DateTime   )"},{"url":"displaySequence","valueInteger":104}]},{"url":"http://hl7.org/fhir/StructureDefinition/cqf-logicDefinition","extension":[{"url":"libraryName","valueString":"CMS1218FHIRHHRF"},{"url":"name","valueString":"LatestGeneralAnesthesiaOrMAC"},{"url":"statement","valueString":"define fluent function LatestGeneralAnesthesiaOrMAC(event Procedure):   Last(\"General Anesthesia And MAC\" ProcedureList       where ProcedureList.status = 'completed'         and ProcedureList.performed.toInterval() ends before start of event.performed.toInterval()       sort by start of performed.toInterval()   )"},{"url":"displaySequence","valueInteger":105}]},{"url":"http://hl7.org/fhir/StructureDefinition/cqf-logicDefinition","extension":[{"url":"libraryName","valueString":"CMS1218FHIRHHRF"},{"url":"name","valueString":"isNotAtProceduralHospitalLocationDuring"},{"url":"statement","valueString":"define fluent function isNotAtProceduralHospitalLocationDuring(encounter Encounter, intrvl Interval<DateTime>):   not exists ( encounter.location EncounterLocation       with [Location] Location         such that EncounterLocation.location.references ( Location )           and Location.type.includesCode ( \"ER\" )           and EncounterLocation.period starts during intrvl   )"},{"url":"displaySequence","valueInteger":106}]},{"url":"http://hl7.org/fhir/StructureDefinition/cqf-logicDefinition","extension":[{"url":"libraryName","valueString":"QICoreCommon"},{"url":"name","valueString":"includesCode"},{"url":"statement","valueString":"/* @description: Returns true if the given code is in the given codeList @comment: Returns true if the `code` is equivalent to any of the codes in the given `codeList`, false otherwise. */ define fluent function includesCode(codeList List<Concept>, code Code):   exists (codeList C where C ~ code)"},{"url":"displaySequence","valueInteger":107}]},{"url":"http://hl7.org/fhir/StructureDefinition/cqf-logicDefinition","extension":[{"url":"libraryName","valueString":"CMS1218FHIRHHRF"},{"url":"name","valueString":"isDuringHospitalization"},{"url":"statement","valueString":"define fluent function isDuringHospitalization(choice Choice<Procedure, LaboratoryResultObservation>, enc Encounter):   case     when choice is Procedure then QICoreCommon.ToInterval ( ( choice as Procedure ).performed ) during CQMCommon.\"HospitalizationWithObservationAndOutpatientSurgeryService\" ( enc )     when choice is LaboratoryResultObservation then QICoreCommon.ToInterval ( ( choice as LaboratoryResultObservation ).effective ) during CQMCommon.\"HospitalizationWithObservationAndOutpatientSurgeryService\" ( enc )      else false end"},{"url":"displaySequence","valueInteger":108}]},{"url":"http://hl7.org/fhir/StructureDefinition/cqf-logicDefinition","extension":[{"url":"libraryName","valueString":"QICoreCommon"},{"url":"name","valueString":"ToInterval"},{"url":"statement","valueString":"/* @description: Normalizes a value that is a choice of timing-valued types to an equivalent interval @comment: Normalizes a choice type of DateTime, Quanitty, Interval<DateTime>, or Interval<Quantity> types to an equivalent interval. This selection of choice types is a superset of the majority of choice types that are used as possible representations for timing-valued elements in QICore, allowing this function to be used across any resource. The input can be provided as a DateTime, Quantity, Interval<DateTime> or Interval<Quantity>. The intent of this function is to provide a clear and concise mechanism to treat single elements that have multiple possible representations as intervals so that logic doesn't have to account for the variability. More complex calculations (such as medication request period or dispense period calculation) need specific guidance and consideration. That guidance may make use of this function, but the focus of this function is on single element calculations where the semantics are unambiguous. If the input is a DateTime, the result a DateTime Interval beginning and ending on that DateTime. If the input is a Quantity, the quantity is expected to be a calendar-duration interpreted as an Age, and the result is a DateTime Interval beginning on the Date the patient turned that age and ending immediately before one year later. If the input is a DateTime Interval, the result is the input. If the input is a Quantity Interval, the quantities are expected to be calendar-durations interpreted as an Age, and the result is a DateTime Interval beginning on the date the patient turned the age given as the start of the quantity interval, and ending immediately before one year later than the date the patient turned the age given as the end of the quantity interval. If the input is a Timing, an error will be thrown indicating that Timing calculations are not implemented. Any other input will reslt in a null DateTime Interval @deprecated: This function is deprecated. Use the fluent function `toInterval()` instead */ define function ToInterval(choice Choice<DateTime, Quantity, Interval<DateTime>, Interval<Quantity>, Timing>):   case    when choice is DateTime then      Interval[choice as DateTime, choice as DateTime]   when choice is Interval<DateTime> then     choice as Interval<DateTime>   when choice is Quantity then     Interval[Patient.birthDate + (choice as Quantity),      Patient.birthDate + (choice as Quantity) + 1 year)   when choice is Interval<Quantity> then     Interval[Patient.birthDate + (choice.low as Quantity),      Patient.birthDate + (choice.high as Quantity) + 1 year)   when choice is Timing then       Message(null, true, 'NOT_IMPLEMENTED', 'Error', 'Calculation of an interval from a Timing value is not supported') as Interval<DateTime>   else    null as Interval<DateTime>  end"},{"url":"displaySequence","valueInteger":109}]},{"url":"http://hl7.org/fhir/StructureDefinition/cqf-logicDefinition","extension":[{"url":"libraryName","valueString":"CMS1218FHIRHHRF"},{"url":"name","valueString":"isNotAtProceduralHospitalLocation"},{"url":"statement","valueString":"define fluent function isNotAtProceduralHospitalLocation(encounter Encounter):   not exists ( encounter.location EncounterLocation       with [Location] Location         such that EncounterLocation.location.references ( Location )           and Location.type.includesCode ( \"ER\" )   )"},{"url":"displaySequence","valueInteger":110}]},{"url":"http://hl7.org/fhir/StructureDefinition/cqf-logicDefinition","extension":[{"url":"libraryName","valueString":"CMS1218FHIRHHRF"},{"url":"name","valueString":"FirstBloodUreaNitrogen"},{"url":"statement","valueString":"define fluent function FirstBloodUreaNitrogen(QualifyingEncounter Encounter):   First([LaboratoryResultObservation: \"Blood Urea Nitrogen Lab Test\"] FirstBUN       where FirstBUN.status in { 'final', 'amended', 'corrected' }         and FirstBUN.isEarliestDuringHospitalization(QualifyingEncounter)       sort by effective.earliest()   ).value as Quantity"},{"url":"displaySequence","valueInteger":111}]},{"url":"http://hl7.org/fhir/StructureDefinition/cqf-logicDefinition","extension":[{"url":"libraryName","valueString":"CQMCommon"},{"url":"name","valueString":"hasPrincipalDiagnosisOf"},{"url":"statement","valueString":"/*  @description: Returns the condition that is specified as the principal diagnosis for the encounter and has a code in the given valueSet.  @comment: See the QICore 6 Authoring Patterns discussion on [Principal Diagnosis and Present on Admission](https://github.com/cqframework/CQL-Formatting-and-Usage-Wiki/wiki/Authoring-Patterns-QICore-v6.0.0#conditions-present-on-admission-and-principal-diagnoses) for more information  */  define fluent function hasPrincipalDiagnosisOf(encounter Encounter, valueSet ValueSet):    (encounter.principalDiagnosis()) PD      return PD.diagnosis in valueSet        or PD.diagnosis.getCondition().code in valueSet"},{"url":"displaySequence","valueInteger":112}]},{"url":"http://hl7.org/fhir/StructureDefinition/cqf-logicDefinition","extension":[{"url":"libraryName","valueString":"CQMCommon"},{"url":"name","valueString":"principalDiagnosis"},{"url":"statement","valueString":"/* @description: Returns the claim diagnosis element that is specified as the principal diagnosis for the encounter  @comment: See the QICore 6 Authoring Patterns discussion on [Principal Diagnosis and Present on Admission](https://github.com/cqframework/CQL-Formatting-and-Usage-Wiki/wiki/Authoring-Patterns-QICore-v6.0.0#conditions-present-on-admission-and-principal-diagnoses) for more information */ define fluent function principalDiagnosis(encounter Encounter): singleton from (      (encounter.claimDiagnosis()) CD        where CD.type.includesCode(\"Principal Diagnosis\")    )"},{"url":"displaySequence","valueInteger":113}]},{"url":"http://hl7.org/fhir/StructureDefinition/cqf-logicDefinition","extension":[{"url":"libraryName","valueString":"CQMCommon"},{"url":"name","valueString":"claimDiagnosis"},{"url":"statement","valueString":"/* @description: Returns the claim diagnosis elements for the given encounter @comment: See the QICore 6 Authoring Patterns discussion on [Principal Diagnosis and Present on Admission](https://github.com/cqframework/CQL-Formatting-and-Usage-Wiki/wiki/Authoring-Patterns-QICore-v6.0.0#conditions-present-on-admission-and-principal-diagnoses) for more information */ define fluent function claimDiagnosis(encounter Encounter):   encounter E     let        claim: ([Claim] C where C.status = 'active' and C.use = 'claim' and exists (C.item I where I.encounter.references(E))),       claimItem: (claim.item I where I.encounter.references(E))     return claim.diagnosis D where D.sequence in claimItem.diagnosisSequence"},{"url":"displaySequence","valueInteger":114}]},{"url":"http://hl7.org/fhir/StructureDefinition/cqf-logicDefinition","extension":[{"url":"libraryName","valueString":"CQMCommon"},{"url":"name","valueString":"getCondition"},{"url":"statement","valueString":"/* @description: Returns the Condition resource for the given reference */ define fluent function getCondition(reference Reference):   singleton from (([ConditionEncounterDiagnosis] union [ConditionProblemsHealthConcerns]) C where reference.references(C.id))"},{"url":"displaySequence","valueInteger":115}]},{"url":"http://hl7.org/fhir/StructureDefinition/cqf-logicDefinition","extension":[{"url":"libraryName","valueString":"CQMCommon"},{"url":"name","valueString":"isDiagnosisPresentOnAdmission"},{"url":"statement","valueString":"/*  @description: Returns true if the given diagnosis is present on admission, based on the given poaValueSet  @comment: See the QICore 6 Authoring Patterns discussion on [Principal Diagnosis and Present on Admission](https://github.com/cqframework/CQL-Formatting-and-Usage-Wiki/wiki/Authoring-Patterns-QICore-v6.0.0#conditions-present-on-admission-and-principal-diagnoses) for more information  */  define fluent function isDiagnosisPresentOnAdmission(encounter Encounter, diagnosisValueSet ValueSet, poaValueSet ValueSet):    exists (      (encounter.claimDiagnosis()) CD        where CD.onAdmission in poaValueSet          and (            CD.diagnosis in diagnosisValueSet              or CD.diagnosis.getCondition().code in diagnosisValueSet          )    )"},{"url":"displaySequence","valueInteger":116}]},{"url":"http://hl7.org/fhir/StructureDefinition/cqf-logicDefinition","extension":[{"url":"libraryName","valueString":"CMS1218FHIRHHRF"},{"url":"name","valueString":"FirstAST"},{"url":"statement","valueString":"define fluent function FirstAST(QualifyingEncounter Encounter):   First([LaboratoryResultObservation: \"Aspartate transaminase Lab Test\"] FirstASTTest       where FirstASTTest.status in { 'final', 'amended', 'corrected' }         and FirstASTTest.isEarliestDuringHospitalization(QualifyingEncounter)       sort by effective.earliest()   ).value as Quantity"},{"url":"displaySequence","valueInteger":117}]},{"url":"http://hl7.org/fhir/StructureDefinition/cqf-logicDefinition","extension":[{"url":"libraryName","valueString":"CMS1218FHIRHHRF"},{"url":"name","valueString":"FirstPlatelet"},{"url":"statement","valueString":"define fluent function FirstPlatelet(QualifyingEncounter Encounter):   First([LaboratoryResultObservation: \"Platelet Count Lab Test\"] FirstPlateletCount       where FirstPlateletCount.status in { 'final', 'amended', 'corrected' }         and FirstPlateletCount.isEarliestDuringHospitalization(QualifyingEncounter)       sort by effective.earliest()   ).value as Quantity"},{"url":"displaySequence","valueInteger":118}]}],"name":"EffectiveDataRequirements","status":"active","type":{"coding":[{"system":"http://terminology.hl7.org/CodeSystem/library-type","code":"module-definition"}]},"relatedArtifact":[{"type":"depends-on","display":"Library FHIRHelpers","resource":"https://madie.cms.gov/Library/FHIRHelpers|4.4.000"},{"type":"depends-on","display":"Library QICoreCommon","resource":"https://madie.cms.gov/Library/QICoreCommon|4.0.000"},{"type":"depends-on","display":"Library CQMCommon","resource":"https://madie.cms.gov/Library/CQMCommon|4.1.000"},{"type":"depends-on","display":"Library SDE","resource":"https://madie.cms.gov/Library/SupplementalDataElements|5.1.000"},{"type":"depends-on","display":"Code system SNOMEDCT","resource":"http://snomed.info/sct"},{"type":"depends-on","display":"Code system LOINC","resource":"http://loinc.org"},{"type":"depends-on","display":"Code system LocationRoles","resource":"http://terminology.hl7.org/CodeSystem/v3-RoleCode"},{"type":"depends-on","display":"Code system Diagnosis Type","resource":"http://terminology.hl7.org/CodeSystem/ex-diagnosistype"},{"type":"depends-on","display":"Value set Elective Inpatient Encounter","resource":"http://cts.nlm.nih.gov/fhir/ValueSet/2.16.840.1.113762.1.4.1248.85"},{"type":"depends-on","display":"Value set Emergency Department Visit","resource":"http://cts.nlm.nih.gov/fhir/ValueSet/2.16.840.1.113883.3.117.1.7.1.292"},{"type":"depends-on","display":"Value set Obstetrical Or Pregnancy Related Conditions","resource":"http://cts.nlm.nih.gov/fhir/ValueSet/2.16.840.1.113883.3.117.1.7.1.263"},{"type":"depends-on","display":"Value set General And Neuraxial Anesthesia","resource":"http://cts.nlm.nih.gov/fhir/ValueSet/2.16.840.1.113762.1.4.1248.208"},{"type":"depends-on","display":"Value set Observation Services","resource":"http://cts.nlm.nih.gov/fhir/ValueSet/2.16.840.1.113762.1.4.1111.143"},{"type":"depends-on","display":"Value set Outpatient Surgery Service","resource":"http://cts.nlm.nih.gov/fhir/ValueSet/2.16.840.1.113762.1.4.1110.38"},{"type":"depends-on","display":"Value set Albumin Lab Test","resource":"http://cts.nlm.nih.gov/fhir/ValueSet/2.16.840.1.113762.1.4.1248.221"},{"type":"depends-on","display":"Value set Arterial Blood pH","resource":"http://cts.nlm.nih.gov/fhir/ValueSet/2.16.840.1.113762.1.4.1248.96"},{"type":"depends-on","display":"Value set Carbon Dioxide Partial Pressure In Arterial Blood","resource":"http://cts.nlm.nih.gov/fhir/ValueSet/2.16.840.1.113762.1.4.1248.95"},{"type":"depends-on","display":"Value set Hematocrit Lab Test","resource":"http://cts.nlm.nih.gov/fhir/ValueSet/2.16.840.1.113762.1.4.1045.114"},{"type":"depends-on","display":"Value set Hemoglobin Lab Test","resource":"http://cts.nlm.nih.gov/fhir/ValueSet/2.16.840.1.113762.1.4.1248.219"},{"type":"depends-on","display":"Value set Sodium Lab Test","resource":"http://cts.nlm.nih.gov/fhir/ValueSet/2.16.840.1.113762.1.4.1045.119"},{"type":"depends-on","display":"Value set Payer Type","resource":"http://cts.nlm.nih.gov/fhir/ValueSet/2.16.840.1.114222.4.11.3591"},{"type":"depends-on","display":"Value set Creatinine Lab Test","resource":"http://cts.nlm.nih.gov/fhir/ValueSet/2.16.840.1.113883.3.666.5.2363"},{"type":"depends-on","display":"Value set White Blood Cells Count Lab Test","resource":"http://cts.nlm.nih.gov/fhir/ValueSet/2.16.840.1.113762.1.4.1045.129"},{"type":"depends-on","display":"Value set ASA Physical Status Class","resource":"http://cts.nlm.nih.gov/fhir/ValueSet/2.16.840.1.113762.1.4.1248.217"},{"type":"depends-on","display":"Value set Bicarbonate Lab Test","resource":"http://cts.nlm.nih.gov/fhir/ValueSet/2.16.840.1.113762.1.4.1045.139"},{"type":"depends-on","display":"Value set Bilirubin Lab Test","resource":"http://cts.nlm.nih.gov/fhir/ValueSet/2.16.840.1.113762.1.4.1248.223"},{"type":"depends-on","display":"Value set Oxygen Partial Pressure In Arterial Blood","resource":"http://cts.nlm.nih.gov/fhir/ValueSet/2.16.840.1.113762.1.4.1248.94"},{"type":"depends-on","display":"Value set Leukocyte Count Lab Test","resource":"http://cts.nlm.nih.gov/fhir/ValueSet/2.16.840.1.113762.1.4.1248.222"},{"type":"depends-on","display":"Value set Intubation","resource":"http://cts.nlm.nih.gov/fhir/ValueSet/2.16.840.1.113762.1.4.1248.179"},{"type":"depends-on","display":"Value set Anesthesia Requiring Monitored Care","resource":"http://cts.nlm.nih.gov/fhir/ValueSet/2.16.840.1.113762.1.4.1248.255"},{"type":"depends-on","display":"Value set Mechanical Ventilation","resource":"http://cts.nlm.nih.gov/fhir/ValueSet/2.16.840.1.113762.1.4.1248.107"},{"type":"depends-on","display":"Value set Non Invasive Oxygen Therapy By Nasal Cannula Or Mask","resource":"http://cts.nlm.nih.gov/fhir/ValueSet/2.16.840.1.113762.1.4.1248.209"},{"type":"depends-on","display":"Value set Non Invasive Oxygen Therapy","resource":"http://cts.nlm.nih.gov/fhir/ValueSet/2.16.840.1.113762.1.4.1248.213"},{"type":"depends-on","display":"Value set Blood Urea Nitrogen Lab Test","resource":"http://cts.nlm.nih.gov/fhir/ValueSet/2.16.840.1.113762.1.4.1248.218"},{"type":"depends-on","display":"Value set Degenerative Neurological Disorder","resource":"http://cts.nlm.nih.gov/fhir/ValueSet/2.16.840.1.113762.1.4.1248.241"},{"type":"depends-on","display":"Value set Head, Neck, And Thoracic Surgeries With High Risk Airway Compromise","resource":"http://cts.nlm.nih.gov/fhir/ValueSet/2.16.840.1.113762.1.4.1248.251"},{"type":"depends-on","display":"Value set Neuromuscular Disorder","resource":"http://cts.nlm.nih.gov/fhir/ValueSet/2.16.840.1.113762.1.4.1248.239"},{"type":"depends-on","display":"Value set Acute Respiratory Failure","resource":"http://cts.nlm.nih.gov/fhir/ValueSet/2.16.840.1.113762.1.4.1248.88"},{"type":"depends-on","display":"Value set Present On Admission Or Clinically Undetermined","resource":"http://cts.nlm.nih.gov/fhir/ValueSet/2.16.840.1.113762.1.4.1147.197"},{"type":"depends-on","display":"Value set Tracheostomy Diagnoses","resource":"http://cts.nlm.nih.gov/fhir/ValueSet/2.16.840.1.113762.1.4.1248.89"},{"type":"depends-on","display":"Value set Tracheostomy Procedures","resource":"http://cts.nlm.nih.gov/fhir/ValueSet/2.16.840.1.113762.1.4.1248.181"},{"type":"depends-on","display":"Value set Aspartate transaminase Lab Test","resource":"http://cts.nlm.nih.gov/fhir/ValueSet/2.16.840.1.113762.1.4.1248.224"},{"type":"depends-on","display":"Value set Platelet Count Lab Test","resource":"http://cts.nlm.nih.gov/fhir/ValueSet/2.16.840.1.113762.1.4.1045.127"}],"parameter":[{"name":"Measurement Period","use":"in","min":0,"max":"1","type":"Period"},{"name":"Initial Population","use":"out","min":0,"max":"*","type":"Resource"},{"name":"Numerator","use":"out","min":0,"max":"*","type":"Resource"},{"name":"Denominator","use":"out","min":0,"max":"*","type":"Resource"},{"name":"Denominator Exclusions","use":"out","min":0,"max":"*","type":"Resource"},{"name":"SDE Payer","use":"out","min":0,"max":"*","type":"Resource"},{"name":"SDE Race","use":"out","min":0,"max":"1","type":"Resource"},{"name":"SDE Sex","use":"out","min":0,"max":"1","type":"Coding"},{"name":"SDE Ethnicity","use":"out","min":0,"max":"1","type":"Resource"},{"name":"Risk Variable First Respiratory Rate In Encounter","use":"out","min":0,"max":"*","type":"Resource"},{"name":"Risk Variable First Albumin In Encounter","use":"out","min":0,"max":"*","type":"Resource"},{"name":"Risk Variable First Arterial pH In Encounter","use":"out","min":0,"max":"*","type":"Resource"},{"name":"Risk Variable First Body Temperature In Encounter","use":"out","min":0,"max":"*","type":"Resource"},{"name":"Risk Variable First Carbon Dioxide In Encounter","use":"out","min":0,"max":"*","type":"Resource"},{"name":"Risk Variable First Hematocrit In Encounter","use":"out","min":0,"max":"*","type":"Resource"},{"name":"Risk Variable First Heart Rate In Encounter","use":"out","min":0,"max":"*","type":"Resource"},{"name":"Risk Variable First BMI","use":"out","min":0,"max":"*","type":"Resource"},{"name":"Risk Variable First Hemoglobin In Encounter","use":"out","min":0,"max":"*","type":"Resource"},{"name":"Risk Variable All Encounter Diagnoses With POA Indication","use":"out","min":0,"max":"*","type":"Resource"},{"name":"Risk Variable First Sodium In Encounter","use":"out","min":0,"max":"*","type":"Resource"},{"name":"Risk Variable First Creatinine In Encounter","use":"out","min":0,"max":"*","type":"Resource"},{"name":"Risk Variable First White Blood Cell Count In Encounter","use":"out","min":0,"max":"*","type":"Resource"},{"name":"Risk Variable ASA Physical Status Class","use":"out","min":0,"max":"*","type":"CodeableConcept"},{"name":"Risk Variable Principal Procedure","use":"out","min":0,"max":"*","type":"Resource"},{"name":"Risk Variable Body Mass Index (BMI)","use":"out","min":0,"max":"*","type":"Quantity"},{"name":"Risk Variable First Bicarbonate In Encounter","use":"out","min":0,"max":"*","type":"Resource"},{"name":"Risk Variable First Bilirubin In Encounter","use":"out","min":0,"max":"*","type":"Resource"},{"name":"Risk Variable First Systolic Blood Pressure In Encounter","use":"out","min":0,"max":"*","type":"Resource"},{"name":"Risk Variable First Oxygen In Encounter","use":"out","min":0,"max":"*","type":"Resource"},{"name":"Risk Variable First Leukocyte Count In Encounter","use":"out","min":0,"max":"*","type":"Resource"},{"name":"Risk Variable Encounter Procedures","use":"out","min":0,"max":"*","type":"Resource"},{"name":"Risk Variable First Blood Urea Nitrogen In Encounter","use":"out","min":0,"max":"*","type":"Resource"},{"name":"Risk Variable First AST In Encounter","use":"out","min":0,"max":"*","type":"Resource"},{"name":"Risk Variable First Platelet Count In Encounter","use":"out","min":0,"max":"*","type":"Resource"}],"dataRequirement":[{"type":"Patient","profile":["http://hl7.org/fhir/us/qicore/StructureDefinition/qicore-patient"],"mustSupport":["birthDate","birthDate.value","url","extension"]},{"type":"Encounter","profile":["http://hl7.org/fhir/us/qicore/StructureDefinition/qicore-encounter"],"mustSupport":["type","status","status.value","period","priority","id","id.value","location","reasonCode","diagnosis","diagnosis.code","onAdmission"],"codeFilter":[{"path":"type","valueSet":"http://cts.nlm.nih.gov/fhir/ValueSet/2.16.840.1.113762.1.4.1248.85"}]},{"type":"Encounter","profile":["http://hl7.org/fhir/us/qicore/StructureDefinition/qicore-encounter"],"mustSupport":["type","status","status.value","period","id","id.value","location","reasonCode","diagnosis","diagnosis.code","onAdmission"],"codeFilter":[{"path":"type","valueSet":"http://cts.nlm.nih.gov/fhir/ValueSet/2.16.840.1.113762.1.4.1111.143"}]},{"type":"Encounter","profile":["http://hl7.org/fhir/us/qicore/StructureDefinition/qicore-encounter"],"mustSupport":["type","status","status.value","period","id","id.value","location","reasonCode","diagnosis","diagnosis.code","onAdmission"],"codeFilter":[{"path":"type","valueSet":"http://cts.nlm.nih.gov/fhir/ValueSet/2.16.840.1.113883.3.117.1.7.1.292"}]},{"type":"Encounter","profile":["http://hl7.org/fhir/us/qicore/StructureDefinition/qicore-encounter"],"mustSupport":["type","period","id","id.value","location","reasonCode","diagnosis","diagnosis.code","onAdmission"],"codeFilter":[{"path":"type","valueSet":"http://cts.nlm.nih.gov/fhir/ValueSet/2.16.840.1.113762.1.4.1110.38"}]},{"type":"Condition","profile":["http://hl7.org/fhir/us/qicore/StructureDefinition/qicore-condition-encounter-diagnosis"]},{"type":"Condition","profile":["http://hl7.org/fhir/us/qicore/StructureDefinition/qicore-condition-problems-health-concerns"]},{"type":"Procedure","profile":["http://hl7.org/fhir/us/qicore/StructureDefinition/qicore-procedure"],"mustSupport":["code","status","status.value","performed","id","id.value"],"codeFilter":[{"path":"code","valueSet":"http://cts.nlm.nih.gov/fhir/ValueSet/2.16.840.1.113762.1.4.1248.255"}]},{"type":"Procedure","profile":["http://hl7.org/fhir/us/qicore/StructureDefinition/qicore-procedure"],"mustSupport":["code","status","status.value","performed","id","id.value"],"codeFilter":[{"path":"code","valueSet":"http://cts.nlm.nih.gov/fhir/ValueSet/2.16.840.1.113762.1.4.1248.208"}]},{"type":"Procedure","profile":["http://hl7.org/fhir/us/qicore/StructureDefinition/qicore-procedure"],"mustSupport":["code","status","status.value","performed","id","id.value"],"codeFilter":[{"path":"code","valueSet":"http://cts.nlm.nih.gov/fhir/ValueSet/2.16.840.1.113762.1.4.1248.179"}]},{"type":"Procedure","profile":["http://hl7.org/fhir/us/qicore/StructureDefinition/qicore-procedure"],"mustSupport":["code","status","status.value","performed","id","id.value"],"codeFilter":[{"path":"code","valueSet":"http://cts.nlm.nih.gov/fhir/ValueSet/2.16.840.1.113762.1.4.1248.209"}]},{"type":"Procedure","profile":["http://hl7.org/fhir/us/qicore/StructureDefinition/qicore-procedure"],"mustSupport":["code","status","status.value","performed","id","id.value"],"codeFilter":[{"path":"code","code":[{"system":"http://snomed.info/sct","code":"271280005","display":"Removal of endotracheal tube (procedure)"}]}]},{"type":"Procedure","profile":["http://hl7.org/fhir/us/qicore/StructureDefinition/qicore-procedure"],"mustSupport":["code","status","status.value","performed","id","id.value"],"codeFilter":[{"path":"code","valueSet":"http://cts.nlm.nih.gov/fhir/ValueSet/2.16.840.1.113762.1.4.1248.251"}]},{"type":"Procedure","profile":["http://hl7.org/fhir/us/qicore/StructureDefinition/qicore-procedure"],"mustSupport":["code","performed","status","status.value","id","id.value"],"codeFilter":[{"path":"code","valueSet":"http://cts.nlm.nih.gov/fhir/ValueSet/2.16.840.1.113762.1.4.1248.107"}]},{"type":"Procedure","profile":["http://hl7.org/fhir/us/qicore/StructureDefinition/qicore-procedure"],"mustSupport":["performed","status","status.value","id","id.value","partOf","code"]},{"type":"Procedure","profile":["http://hl7.org/fhir/us/qicore/StructureDefinition/qicore-procedure"],"mustSupport":["code","status","status.value","performed","id","id.value"],"codeFilter":[{"path":"code","valueSet":"http://cts.nlm.nih.gov/fhir/ValueSet/2.16.840.1.113762.1.4.1248.181"}]},{"type":"Observation","profile":["http://hl7.org/fhir/us/core/StructureDefinition/us-core-respiratory-rate"],"mustSupport":["code","status","status.value","effective","value"],"codeFilter":[{"path":"code","code":[{"system":"http://loinc.org","code":"9279-1","display":"Respiratory rate"}]}]},{"type":"Observation","profile":["http://hl7.org/fhir/us/core/StructureDefinition/us-core-respiratory-rate"],"mustSupport":["value"]},{"type":"Observation","profile":["http://hl7.org/fhir/us/qicore/StructureDefinition/qicore-observation-lab"],"mustSupport":["code","status","status.value"],"codeFilter":[{"path":"code","valueSet":"http://cts.nlm.nih.gov/fhir/ValueSet/2.16.840.1.113762.1.4.1248.221"}]},{"type":"Observation","profile":["http://hl7.org/fhir/us/qicore/StructureDefinition/qicore-observation-lab"],"mustSupport":["code","status","status.value"],"codeFilter":[{"path":"code","valueSet":"http://cts.nlm.nih.gov/fhir/ValueSet/2.16.840.1.113762.1.4.1045.114"}]},{"type":"Observation","profile":["http://hl7.org/fhir/us/qicore/StructureDefinition/qicore-observation-lab"],"mustSupport":["code","status","status.value"],"codeFilter":[{"path":"code","valueSet":"http://cts.nlm.nih.gov/fhir/ValueSet/2.16.840.1.113762.1.4.1248.219"}]},{"type":"Observation","profile":["http://hl7.org/fhir/us/qicore/StructureDefinition/qicore-observation-lab"],"mustSupport":["code","status","status.value"],"codeFilter":[{"path":"code","valueSet":"http://cts.nlm.nih.gov/fhir/ValueSet/2.16.840.1.113762.1.4.1045.119"}]},{"type":"Observation","profile":["http://hl7.org/fhir/us/qicore/StructureDefinition/qicore-observation-lab"],"mustSupport":["code","status","status.value"],"codeFilter":[{"path":"code","valueSet":"http://cts.nlm.nih.gov/fhir/ValueSet/2.16.840.1.113883.3.666.5.2363"}]},{"type":"Observation","profile":["http://hl7.org/fhir/us/qicore/StructureDefinition/qicore-observation-lab"],"mustSupport":["code","status","status.value"],"codeFilter":[{"path":"code","valueSet":"http://cts.nlm.nih.gov/fhir/ValueSet/2.16.840.1.113762.1.4.1045.129"}]},{"type":"Observation","profile":["http://hl7.org/fhir/us/qicore/StructureDefinition/qicore-observation-lab"],"mustSupport":["code","status","status.value"],"codeFilter":[{"path":"code","valueSet":"http://cts.nlm.nih.gov/fhir/ValueSet/2.16.840.1.113762.1.4.1045.139"}]},{"type":"Observation","profile":["http://hl7.org/fhir/us/qicore/StructureDefinition/qicore-observation-lab"],"mustSupport":["code","status","status.value"],"codeFilter":[{"path":"code","valueSet":"http://cts.nlm.nih.gov/fhir/ValueSet/2.16.840.1.113762.1.4.1248.223"}]},{"type":"Observation","profile":["http://hl7.org/fhir/us/qicore/StructureDefinition/qicore-observation-lab"],"mustSupport":["code","status","status.value"],"codeFilter":[{"path":"code","valueSet":"http://cts.nlm.nih.gov/fhir/ValueSet/2.16.840.1.113762.1.4.1248.222"}]},{"type":"Observation","profile":["http://hl7.org/fhir/us/qicore/StructureDefinition/qicore-observation-lab"],"mustSupport":["code"],"codeFilter":[{"path":"code","valueSet":"http://cts.nlm.nih.gov/fhir/ValueSet/2.16.840.1.113762.1.4.1248.213"}]},{"type":"Observation","profile":["http://hl7.org/fhir/us/qicore/StructureDefinition/qicore-observation-lab"],"mustSupport":["code","status","status.value"],"codeFilter":[{"path":"code","valueSet":"http://cts.nlm.nih.gov/fhir/ValueSet/2.16.840.1.113762.1.4.1248.218"}]},{"type":"Observation","profile":["http://hl7.org/fhir/us/qicore/StructureDefinition/qicore-observation-lab"],"mustSupport":["code","status","status.value","effective","value"],"codeFilter":[{"path":"code","valueSet":"http://cts.nlm.nih.gov/fhir/ValueSet/2.16.840.1.113762.1.4.1248.95"}]},{"type":"Observation","profile":["http://hl7.org/fhir/us/qicore/StructureDefinition/qicore-observation-lab"],"mustSupport":["code","status","status.value","effective","value"],"codeFilter":[{"path":"code","valueSet":"http://cts.nlm.nih.gov/fhir/ValueSet/2.16.840.1.113762.1.4.1248.96"}]},{"type":"Observation","profile":["http://hl7.org/fhir/us/qicore/StructureDefinition/qicore-observation-lab"],"mustSupport":["code","status","status.value","effective","value"],"codeFilter":[{"path":"code","valueSet":"http://cts.nlm.nih.gov/fhir/ValueSet/2.16.840.1.113762.1.4.1248.94"}]},{"type":"Observation","profile":["http://hl7.org/fhir/us/qicore/StructureDefinition/qicore-observation-lab"],"mustSupport":["code","status","status.value"],"codeFilter":[{"path":"code","valueSet":"http://cts.nlm.nih.gov/fhir/ValueSet/2.16.840.1.113762.1.4.1248.224"}]},{"type":"Observation","profile":["http://hl7.org/fhir/us/qicore/StructureDefinition/qicore-observation-lab"],"mustSupport":["code","status","status.value"],"codeFilter":[{"path":"code","valueSet":"http://cts.nlm.nih.gov/fhir/ValueSet/2.16.840.1.113762.1.4.1045.127"}]},{"type":"Observation","profile":["http://hl7.org/fhir/us/qicore/StructureDefinition/qicore-observation-lab"],"mustSupport":["effective","value"]},{"type":"Observation","profile":["http://hl7.org/fhir/us/core/StructureDefinition/us-core-body-temperature"],"mustSupport":["code","status","status.value","effective","value"],"codeFilter":[{"path":"code","code":[{"system":"http://loinc.org","code":"8310-5","display":"Body temperature"}]}]},{"type":"Observation","profile":["http://hl7.org/fhir/us/core/StructureDefinition/us-core-body-temperature"],"mustSupport":["value"]},{"type":"Observation","profile":["http://hl7.org/fhir/us/core/StructureDefinition/us-core-heart-rate"],"mustSupport":["code","status","status.value","effective","value"],"codeFilter":[{"path":"code","code":[{"system":"http://loinc.org","code":"8867-4","display":"Heart rate"}]}]},{"type":"Observation","profile":["http://hl7.org/fhir/us/core/StructureDefinition/us-core-heart-rate"],"mustSupport":["value"]},{"type":"Observation","profile":["http://hl7.org/fhir/us/core/StructureDefinition/us-core-bmi"],"mustSupport":["value"]},{"type":"Observation","profile":["http://hl7.org/fhir/us/core/StructureDefinition/us-core-bmi"],"mustSupport":["code","status","status.value","effective","value"],"codeFilter":[{"path":"code","code":[{"system":"http://loinc.org","code":"39156-5","display":"Body mass index (BMI) [Ratio]"}]}]},{"type":"Resource","profile":["http://hl7.org/fhir/StructureDefinition/Resource"],"mustSupport":["id","id.value"]},{"type":"Claim","profile":["http://hl7.org/fhir/us/qicore/StructureDefinition/qicore-claim"],"mustSupport":["status","status.value","use","use.value","item"]},{"type":"Coverage","profile":["http://hl7.org/fhir/us/qicore/StructureDefinition/qicore-coverage"],"mustSupport":["type","period"],"codeFilter":[{"path":"type","valueSet":"http://cts.nlm.nih.gov/fhir/ValueSet/2.16.840.1.114222.4.11.3591"}]},{"type":"Observation","profile":["http://hl7.org/fhir/us/qicore/StructureDefinition/qicore-observation-screening-assessment"],"mustSupport":["effective"]},{"type":"Observation","profile":["http://hl7.org/fhir/us/qicore/StructureDefinition/qicore-observation-screening-assessment"],"mustSupport":["code","status","status.value","value"],"codeFilter":[{"path":"code","code":[{"system":"http://loinc.org","code":"97816-3","display":"American society of anesthesiologists morbidity state"}]}]},{"type":"Observation","profile":["http://hl7.org/fhir/us/core/StructureDefinition/us-core-blood-pressure"],"mustSupport":["effective","status","status.value","component"]},{"type":"Location","profile":["http://hl7.org/fhir/us/qicore/StructureDefinition/qicore-location"],"mustSupport":["type"]}]}],"extension":[{"id":"supplementalDataGuidance","url":"http://hl7.org/fhir/us/cqfmeasures/StructureDefinition/cqfm-supplementalDataGuidance","extension":[{"url":"guidance","valueString":"For every patient evaluated by this measure also identify payer, race, ethnicity and sex"},{"url":"usage","valueCodeableConcept":{"coding":[{"system":"http://terminology.hl7.org/CodeSystem/measure-data-usage","code":"supplemental-data","display":"Supplemental Data"}],"text":"Supplemental Data Guidance"}}]},{"id":"riskAdjustmentVariableGuidance","url":"http://hl7.org/fhir/us/cqfmeasures/StructureDefinition/cqfm-supplementalDataGuidance","extension":[{"url":"guidance","valueString":"Variables are collected for the development of baseline risk adjustment model  Report the first resulted vital sign values during the encounter in the Unified Code for Units of Measure (UCUM) units specified:  - Body temperature: Cel, [degF]  - Heart rate: {Beats}/min  - Respiratory rate: {Breaths}/min  - Systolic blood pressure: mm[Hg]  Report the first resulted laboratory test values during the encounter in UCUM units specified:  - Albumin: g/dL, umol/L  - Aspartate aminotransferase (AST/SGOT): U/L, IU/L  - Bicarbonate: mmol/L  - Bilirubin: mg/dL, umol/L  - Blood urea nitrogen (BUN): mg/dL, umol/L  - Carbon dioxide (partial pressure): mm[Hg]  - Creatinine: mg/dL, umol/L  - Hematocrit: %  - Hemoglobin: g/dL, mmol/L  - Leukocyte count: {cells}/uL, 10*3/uL, 10*9/L,  /mm3  - Oxygen (partial pressure): mm[Hg]  - pH of arterial blood: [pH]  - Platelet count: 10*3/uL, 10*9/L, /mm3  - Sodium: meq/L, mmol/L  - White blood cell count: {cells}/uL, 10*3/uL, 10*9/L,  /mm3  Additional variables used for risk adjustment:  - American Society of Anesthesiologists (ASA) physical status class assessment that starts during the encounter  - First Body mass index (BMI), reported using UCUM unit: kg/m2  - Encounter diagnoses with their present on admission (POA) indicators  - Most recent smoking status  - Principal surgical procedures that start during the encounter  Please see the Hospital Harm - Postoperative Respiratory Failure Risk Adjustment Methodology Report on the dQM-specific page on the eCQI Resource Center website: https://ecqi.healthit.gov/"},{"url":"usage","valueCodeableConcept":{"coding":[{"system":"http://terminology.hl7.org/CodeSystem/measure-data-usage","code":"risk-adjustment-factor","display":"Risk Adjustment Factor"}],"text":"Risk Adjustment Variable Guidance"}}]},{"url":"http://hl7.org/fhir/uv/crmi/StructureDefinition/crmi-effectiveDataRequirements","valueReference":{"reference":"#effective-data-requirements"}}],"url":"https://madie.cms.gov/Measure/CMS1218FHIRHHRF","identifier":[{"use":"usual","type":{"coding":[{"system":"http://terminology.hl7.org/CodeSystem/artifact-identifier-type","code":"short-name","display":"Short Name"}]},"system":"https://madie.cms.gov/measure/shortName","value":"CMS1218FHIR"},{"use":"official","type":{"coding":[{"system":"http://terminology.hl7.org/CodeSystem/artifact-identifier-type","code":"version-independent","display":"Version Independent"}]},"system":"urn:ietf:rfc:3986","value":"urn:uuid:b6857e46-6412-432d-abc8-0508efc0d2d7"},{"use":"official","type":{"coding":[{"system":"http://terminology.hl7.org/CodeSystem/artifact-identifier-type","code":"version-specific","display":"Version Specific"}]},"system":"urn:ietf:rfc:3986","value":"urn:uuid:c922174c-24f8-44e0-ae25-6a4082b4b9d0"},{"use":"official","type":{"coding":[{"system":"http://terminology.hl7.org/CodeSystem/artifact-identifier-type","code":"endorser","display":"Endorser"}]},"system":"https://madie.cms.gov/measure/cbeId","value":"4130e","assigner":{"display":"CMS Consensus Based Entity"}},{"use":"official","type":{"coding":[{"system":"http://terminology.hl7.org/CodeSystem/artifact-identifier-type","code":"publisher","display":"Publisher"}]},"system":"https://madie.cms.gov/measure/cmsId","value":"1218FHIR","assigner":{"display":"CMS"}}],"version":"0.2.000","name":"CMS1218FHIRHHRF","title":"Hospital Harm - Postoperative Respiratory FailureFHIR","status":"active","experimental":false,"date":"2025-07-07T20:06:48+00:00","publisher":"Centers for Medicare & Medicaid Services (CMS)","contact":[{"telecom":[{"system":"url","value":"https://www.cms.gov/"}]}],"description":"This measure assesses the number of elective inpatient hospitalizations for patients aged 18 years and older without an obstetrical condition who have a procedure resulting in postoperative respiratory failure (PRF)","usage":"PRF is evaluated using mechanical ventilation (MV) documentation or intubation and extubation documentation to allow for hospital documentation variances. Therefore, if MV documentation is not available, intubation and extubation can serve as a proxy for determining if MV occurred and its duration. To determine that an unplanned initiation of MV occurred, the logic looks for evidence of a non-invasive oxygen therapy assessment such as oxygen via 'nasal canula' or 'breathing room air' prior to the MV occurrence to verify that MV was newly initiated. Additionally, facility location codes are used to determine if MV was initiated outside of a procedural area (e.g., medical floor). Conversely, to determine MV duration, the logic looks for evidence that a non-invasive oxygen therapy assessment or another operating room procedure does not exist prior to the MV occurrence to verify that MV was continued without interruption from a procedural area.    This dQM is an episode-based measure. An episode is defined as each inpatient hospitalization or encounter that ends during the measurement period.  This FHIR-based measure has been derived from the QDM-based measure: CMS1218v2. Please refer to the HL7 QI-Core Implementation Guide (https://hl7.org/fhir/us/qicore/STU6/) for more information on QI-Core and mapping recommendations from QDM to QI-Core STU 6  (https://hl7.org/fhir/us/qicore/STU6/qdm-to-qicore.html).","copyright":"Limited proprietary coding is contained in the Measure specifications for user convenience. Users of proprietary code sets should obtain all necessary licenses from the owners of the code sets. Mathematica disclaims all liability for use or accuracy of any third-party codes contained in the specifications. LOINC(R) copyright 2004-2024 Regenstrief Institute, Inc.   This material contains SNOMED Clinical Terms(R) (SNOMED CT[R]) copyright 2004-2024 International Health Terminology Standards Development Organisation. ICD-10 copyright 2024 World Health Organization. All Rights Reserved.","effectivePeriod":{"start":"2026-01-01","end":"2026-12-31"},"author":[{"name":"Mathematica","telecom":[{"system":"url","value":"https://www.mathematica.org/"}]}],"relatedArtifact":[{"type":"citation","citation":"CITATION - Arozullah, A.M., Daley, J., Henderson, W.G., & Khuri, S.F. (2000). Multifactorial risk index for predicting postoperative respiratory failure in men after major noncardiac surgery. The National Veterans Administration Surgical Quality Improvement Program. Annals of surgery. 232(2):242-253. doi: 10.1097/00000658-200008000-00015. PMID: 10903604; PMCID: PMC1421137. "},{"type":"citation","citation":"CITATION - Canet, J., & Gallart, L. (2014). Postoperative respiratory failure: Pathogenesis, prediction, and prevention. Current Opinion in Critical Care. 20(1):56-62. doi: 10.1097/MCC.0000000000000045. PMID: 24240985. "},{"type":"citation","citation":"CITATION - Canet, J., Sabaté, S., Mazo, V., Gallart, L., de Abreu, M.G., Belda, J., ... & Pelosi, P. (2015). PERISCOPE group. Development and validation of a score to predict postoperative respiratory failure in a multicentre European cohort: A prospective, observational study. Eur J Anaesthesiol. 32(7):458-70. doi: 10.1097/EJA.0000000000000223. PMID: 26020123. "},{"type":"citation","citation":"CITATION - Gupta, H., Gupta, P.K., Fang, X., Miller, W.J., Cemaj, S., Forse, R.A., & Morrow, L.E. (2011). Development and validation of a risk calculator predicting postoperative respiratory failure. Chest. 140(5):1207-1215. doi: 10.1378/chest.11-0466. Epub 2011 Jul 14. PMID: 21757571. "},{"type":"citation","citation":"CITATION - Kor, D.J., Lingineni, R.K., Gajic, O., Park, P.K., Blum, J.M., Hou, P.C., ... & Talmor, D.S. (2014). Predicting risk of postoperative lung injury in high-risk surgical patients: a multicenter cohort study. Anesthesiology. 120(5):1168-81. doi: 10.1097/ALN.0000000000000216. PMID: 24755786; PMCID: PMC3999474. "},{"type":"citation","citation":"CITATION - Miller, M.R., Elixhauser, A., Zhan, C., & Meyer, G.S. (2001). Patient Safety Indicators: using administrative data to identify potential patient safety concerns. Health Serv Res. 36(6 Pt 2):110-32. PMID: 16148964; PMCID: PMC1383610. "},{"type":"citation","citation":"CITATION - Rahman, M., Neal, D., Fargen, K.M., & Hoh, B.L. (2013). Establishing standard performance measures for adult brain tumor patients: a Nationwide Inpatient Sample database study. Neuro Oncol. 15(11):1580-8. doi: 10.1093/neuonc/not108. Epub 2013 Sep 30. PMID: 24084409; PMCID: PMC3813415. "},{"type":"citation","citation":"CITATION - Romano, P.S., Mull, H.J., Rivard, P.E., Zhao, S., Henderson, W.G., Loveland, S., Tsilimingras, D., ... & Rosen, A.K. (2009). Validity of selected AHRQ patient safety indicators based on VA National Surgical Quality Improvement Program data. Health Serv Res. 44(1):182-204. doi: 10.1111/j.1475-6773.2008.00905.x. Epub 2008 Sep 17. PMID: 18823449; PMCID: PMC2669628. "},{"type":"citation","citation":"CITATION - Thompson, S.L., & Lisco, S.J. (2018). Postoperative respiratory failure. Int Anesthesiol Clin. 56(1):147-164. doi: 10.1097/AIA.0000000000000173. PMID: 29189437. "}],"library":["https://madie.cms.gov/Library/CMS1218FHIRHHRF"],"disclaimer":"This performance measure is not a clinical guideline, does not establish a standard of medical care, and has not been tested for all potential applications.   THE MEASURES AND SPECIFICATIONS ARE PROVIDED “AS IS” WITHOUT WARRANTY OF ANY KIND.   Due to technical limitations, registered trademarks are indicated by (R) or [R] and unregistered trademarks are indicated by (TM) or [TM].","rationale":"Postoperative respiratory failure (PRF), defined as unplanned endotracheal reintubation, prolonged inability to wean from mechanical ventilation, or inadequate oxygenation and/or ventilation, is the most common serious postoperative pulmonary complication, with an incidence of up to 7.5% (the incidence of any postoperative pulmonary complication ranges from 10-40%) (Arozullah et al., 2000; Canet et al., 2015; Gupta et al., 2011; Kor et al., 2014). This measure addresses the prevalence of PRF and the variance between hospitals in the incidence of PRF. PRF is a serious complication that can increase the risk of morbidity and mortality, with in-hospital mortality resulting from PRF estimated at 25% to 40% (Arozullah et al., 2000; Canet & Gallart, 2014). Surgical procedures complicated by PRF have 3.74 times higher adjusted odds of death than those not complicated by respiratory failure, 1.47 times higher odds of 90-day readmission, and 1.86 times higher odds of an outpatient visit with one of 44 postoperative conditions (e.g., bacterial infection, fluid and electrolyte disorder, abdominal hernia) within 90 days of hospital discharge (Miller et al., 2001; Romano et al, 2009). PRF is additionally associated with prolonged mechanical ventilation and the need for rehabilitation or skilled nursing facility placement upon discharge (Thompson & Lisco, 2018).  The incidence of PRF varies by hospital, with higher reported rates of PRF in nonteaching hospitals than teaching hospitals (Rahman et al., 2013). Additionally, one study found that the odds of developing PRF increased by 6% for each level increase in hospital size from small to large (Rahman et al., 2013). This suggests that there remains room for improvement in hospitals reporting higher rates of PRF.  The most widely used current measures of PRF are based on either claims data (CMS Patient Safety Indicator (PSI) 11) or proprietary registry data (National Surgical Quality Improvement Program (NSQIP) of the American College of Surgeons). The dQM is closely modeled after the NSQIP measure of PRF, which has been widely adopted across American hospitals, and is intended to complement and eventually supplant CMS PSI 11.","clinicalRecommendationStatement":"Recent studies and current clinical practice guidelines for PRF have identified enhanced recovery pathways, prophylactic mucolytics, postoperative continuous positive airway pressure ventilation, lung protective intraoperative ventilation, prophylactic respiratory physiotherapy, epidural analgesia, and goal directed hemodynamic therapy as evidence-based interventions to reduce the incidence of PRF. Yet, progress in reducing the incidence of PRF has been stymied by lack of consensus regarding the definition of PRF, which patients are most at-risk, which risk factors are potentially modifiable, and which patients are more likely to benefit from targeted interventions of a health care system’s limited resources. This measure would address this gap in data.  Relevant clinical guidelines for preventing postoperative respiratory failure can be found in the following:  - Mohanty, et al. Optimal Perioperative Management of the Geriatric Patient: Best Practices Guideline from ACS NSQIP/AGS, 2016 - Piraino, et al. AARC Clinical Practice Guideline: Management of Adult Patients with Oxygen in the Acute Care Setting, 2022","group":[{"id":"Group_1","extension":[{"url":"http://hl7.org/fhir/us/cqfmeasures/StructureDefinition/cqfm-scoring","valueCodeableConcept":{"coding":[{"system":"http://terminology.hl7.org/CodeSystem/measure-scoring","code":"proportion","display":"Proportion"}]}},{"url":"http://hl7.org/fhir/us/cqfmeasures/StructureDefinition/cqfm-populationBasis","valueCode":"Encounter"},{"url":"http://hl7.org/fhir/us/cqfmeasures/StructureDefinition/cqfm-type","valueCodeableConcept":{"coding":[{"system":"http://terminology.hl7.org/CodeSystem/measure-type","code":"outcome","display":"Outcome"}]}},{"url":"http://hl7.org/fhir/us/cqfmeasures/StructureDefinition/cqfm-rateAggregation","valueCode":"None"},{"url":"http://hl7.org/fhir/us/cqfmeasures/StructureDefinition/cqfm-improvementNotation","valueCodeableConcept":{"coding":[{"system":"http://terminology.hl7.org/CodeSystem/measure-improvement-notation","code":"decrease","display":"Decreased score indicates improvement"}]}}],"population":[{"id":"InitialPopulation_1","code":{"coding":[{"system":"http://terminology.hl7.org/CodeSystem/measure-population","code":"initial-population","display":"Initial Population"}]},"description":"Elective inpatient hospitalizations with no preceding emergency department visit that end during the measurement period for patients aged 18 and older without an obstetrical condition and at least one surgical procedure was performed within the first 3 days of the encounter","criteria":{"language":"text/cql-identifier","expression":"Initial Population"}},{"id":"Denominator_1","code":{"coding":[{"system":"http://terminology.hl7.org/CodeSystem/measure-population","code":"denominator","display":"Denominator"}]},"description":"Equals Initial Population","criteria":{"language":"text/cql-identifier","expression":"Denominator"}},{"id":"DenominatorExclusion_1","code":{"coding":[{"system":"http://terminology.hl7.org/CodeSystem/measure-population","code":"denominator-exclusion","display":"Denominator Exclusion"}]},"description":"Inpatient hospitalizations for patients:  With a diagnosis for a degenerative neurological disorder  With any selected head, neck, and thoracic surgery involving significant risk of airway compromise or requiring airway protection  Who have mechanical ventilation that starts more than one hour prior to the start of the first operating room (OR) procedure  With a diagnosis for a neuromuscular disorder  With arterial partial pressure of carbon dioxide (PaCO2)>50 mmHg combined with an arterial pH<7.30 within 48 hours or less prior to the start of the first OR procedure  With arterial partial pressure of oxygen (PaO2)<50 mmHg within 48 hours or less prior to the start of the first OR procedure  With a principal diagnosis for acute respiratory failure  With a diagnosis for acute respiratory failure present on admission  With any diagnosis present on admission for the existence of a tracheostomy  Where a tracheostomy is performed before or on the same day as the first OR procedure","criteria":{"language":"text/cql-identifier","expression":"Denominator Exclusions"}},{"id":"Numerator_1","code":{"coding":[{"system":"http://terminology.hl7.org/CodeSystem/measure-population","code":"numerator","display":"Numerator"}]},"description":"Elective inpatient hospitalizations for patients with postoperative respiratory failure as evidenced by any of the following:  Criterion A: Mechanical ventilation (MV) initiated within 30 days after first OR procedure, as evidenced by:  A.1. Intubation that occurs outside of a procedural area and within 30 days after the end of the first OR procedure of the encounter.  or  A.2. MV that occurs outside of a procedural area within 30 days after the end of the first OR procedure of the encounter and is preceded by a period of non-invasive oxygen therapy between the end of the OR procedure and the MV occurrence, and without a subsequent OR procedure between the non-invasive oxygen therapy and the MV occurrence.  or  Criterion B: MV with a duration of more than 48 hours after the first OR procedure, as evidenced by:  B.1. Extubation that occurs outside of a procedural area more than 48 hours after the end of an OR procedure and within 30 days after the end of the first OR procedure, and is not preceded by a period of non-invasive oxygen therapy or a subsequent OR procedure between the end of the OR procedure and the extubation occurrence.  or  B.2 Mechanical ventilation that occurs between 48 and 72 hours after the end of an OR procedure and within 30 days after the end of the first OR procedure, and is not preceded by a non-invasive oxygen therapy or a subsequent OR procedure between the end of the OR procedure and the MV occurrence. ","criteria":{"language":"text/cql-identifier","expression":"Numerator"}}]}],"supplementalData":[{"id":"sde-ethnicity","extension":[{"url":"http://hl7.org/fhir/us/cqfmeasures/StructureDefinition/cqfm-includeInReportType","valueCode":"individual"},{"url":"http://hl7.org/fhir/us/cqfmeasures/StructureDefinition/cqfm-includeInReportType","valueCode":"subject-list"},{"url":"http://hl7.org/fhir/us/cqfmeasures/StructureDefinition/cqfm-includeInReportType","valueCode":"summary"},{"url":"http://hl7.org/fhir/us/cqfmeasures/StructureDefinition/cqfm-includeInReportType","valueCode":"data-collection"}],"usage":[{"coding":[{"system":"http://terminology.hl7.org/CodeSystem/measure-data-usage","code":"supplemental-data"}]}],"description":"SDE Ethnicity","criteria":{"language":"text/cql-identifier","expression":"SDE Ethnicity"}},{"id":"sde-payer","extension":[{"url":"http://hl7.org/fhir/us/cqfmeasures/StructureDefinition/cqfm-includeInReportType","valueCode":"individual"},{"url":"http://hl7.org/fhir/us/cqfmeasures/StructureDefinition/cqfm-includeInReportType","valueCode":"subject-list"},{"url":"http://hl7.org/fhir/us/cqfmeasures/StructureDefinition/cqfm-includeInReportType","valueCode":"summary"},{"url":"http://hl7.org/fhir/us/cqfmeasures/StructureDefinition/cqfm-includeInReportType","valueCode":"data-collection"}],"usage":[{"coding":[{"system":"http://terminology.hl7.org/CodeSystem/measure-data-usage","code":"supplemental-data"}]}],"description":"SDE Payer","criteria":{"language":"text/cql-identifier","expression":"SDE Payer"}},{"id":"sde-race","extension":[{"url":"http://hl7.org/fhir/us/cqfmeasures/StructureDefinition/cqfm-includeInReportType","valueCode":"individual"},{"url":"http://hl7.org/fhir/us/cqfmeasures/StructureDefinition/cqfm-includeInReportType","valueCode":"subject-list"},{"url":"http://hl7.org/fhir/us/cqfmeasures/StructureDefinition/cqfm-includeInReportType","valueCode":"summary"},{"url":"http://hl7.org/fhir/us/cqfmeasures/StructureDefinition/cqfm-includeInReportType","valueCode":"data-collection"}],"usage":[{"coding":[{"system":"http://terminology.hl7.org/CodeSystem/measure-data-usage","code":"supplemental-data"}]}],"description":"SDE Race","criteria":{"language":"text/cql-identifier","expression":"SDE Race"}},{"id":"sde-sex","extension":[{"url":"http://hl7.org/fhir/us/cqfmeasures/StructureDefinition/cqfm-includeInReportType","valueCode":"individual"},{"url":"http://hl7.org/fhir/us/cqfmeasures/StructureDefinition/cqfm-includeInReportType","valueCode":"subject-list"},{"url":"http://hl7.org/fhir/us/cqfmeasures/StructureDefinition/cqfm-includeInReportType","valueCode":"summary"},{"url":"http://hl7.org/fhir/us/cqfmeasures/StructureDefinition/cqfm-includeInReportType","valueCode":"data-collection"}],"usage":[{"coding":[{"system":"http://terminology.hl7.org/CodeSystem/measure-data-usage","code":"supplemental-data"}]}],"description":"SDE Sex","criteria":{"language":"text/cql-identifier","expression":"SDE Sex"}},{"id":"risk-variable-all-encounter-diagnoses-with-poa-indication","extension":[{"url":"http://hl7.org/fhir/us/cqfmeasures/StructureDefinition/cqfm-includeInReportType","valueCode":"individual"},{"url":"http://hl7.org/fhir/us/cqfmeasures/StructureDefinition/cqfm-includeInReportType","valueCode":"subject-list"},{"url":"http://hl7.org/fhir/us/cqfmeasures/StructureDefinition/cqfm-includeInReportType","valueCode":"summary"},{"url":"http://hl7.org/fhir/us/cqfmeasures/StructureDefinition/cqfm-includeInReportType","valueCode":"data-collection"}],"usage":[{"coding":[{"system":"http://terminology.hl7.org/CodeSystem/measure-data-usage","code":"risk-adjustment-factor"}]}],"description":"Risk Variable All Encounter Diagnoses With POA Indication","criteria":{"language":"text/cql-identifier","expression":"Risk Variable All Encounter Diagnoses With POA Indication"}},{"id":"risk-variable-asa-physical-status-class","extension":[{"url":"http://hl7.org/fhir/us/cqfmeasures/StructureDefinition/cqfm-includeInReportType","valueCode":"individual"},{"url":"http://hl7.org/fhir/us/cqfmeasures/StructureDefinition/cqfm-includeInReportType","valueCode":"subject-list"},{"url":"http://hl7.org/fhir/us/cqfmeasures/StructureDefinition/cqfm-includeInReportType","valueCode":"summary"},{"url":"http://hl7.org/fhir/us/cqfmeasures/StructureDefinition/cqfm-includeInReportType","valueCode":"data-collection"}],"usage":[{"coding":[{"system":"http://terminology.hl7.org/CodeSystem/measure-data-usage","code":"risk-adjustment-factor"}]}],"description":"Risk Variable ASA Physical Status Class","criteria":{"language":"text/cql-identifier","expression":"Risk Variable ASA Physical Status Class"}},{"id":"risk-variable-body-mass-index-(bmi)","extension":[{"url":"http://hl7.org/fhir/us/cqfmeasures/StructureDefinition/cqfm-includeInReportType","valueCode":"individual"},{"url":"http://hl7.org/fhir/us/cqfmeasures/StructureDefinition/cqfm-includeInReportType","valueCode":"subject-list"},{"url":"http://hl7.org/fhir/us/cqfmeasures/StructureDefinition/cqfm-includeInReportType","valueCode":"summary"},{"url":"http://hl7.org/fhir/us/cqfmeasures/StructureDefinition/cqfm-includeInReportType","valueCode":"data-collection"}],"usage":[{"coding":[{"system":"http://terminology.hl7.org/CodeSystem/measure-data-usage","code":"risk-adjustment-factor"}]}],"description":"Risk Variable Body Mass Index (BMI)","criteria":{"language":"text/cql-identifier","expression":"Risk Variable Body Mass Index (BMI)"}},{"id":"risk-variable-encounter-procedures","extension":[{"url":"http://hl7.org/fhir/us/cqfmeasures/StructureDefinition/cqfm-includeInReportType","valueCode":"individual"},{"url":"http://hl7.org/fhir/us/cqfmeasures/StructureDefinition/cqfm-includeInReportType","valueCode":"subject-list"},{"url":"http://hl7.org/fhir/us/cqfmeasures/StructureDefinition/cqfm-includeInReportType","valueCode":"summary"},{"url":"http://hl7.org/fhir/us/cqfmeasures/StructureDefinition/cqfm-includeInReportType","valueCode":"data-collection"}],"usage":[{"coding":[{"system":"http://terminology.hl7.org/CodeSystem/measure-data-usage","code":"risk-adjustment-factor"}]}],"description":"Risk Variable Encounter Procedures","criteria":{"language":"text/cql-identifier","expression":"Risk Variable Encounter Procedures"}},{"id":"risk-variable-first-albumin-in-encounter","extension":[{"url":"http://hl7.org/fhir/us/cqfmeasures/StructureDefinition/cqfm-includeInReportType","valueCode":"individual"},{"url":"http://hl7.org/fhir/us/cqfmeasures/StructureDefinition/cqfm-includeInReportType","valueCode":"subject-list"},{"url":"http://hl7.org/fhir/us/cqfmeasures/StructureDefinition/cqfm-includeInReportType","valueCode":"summary"},{"url":"http://hl7.org/fhir/us/cqfmeasures/StructureDefinition/cqfm-includeInReportType","valueCode":"data-collection"}],"usage":[{"coding":[{"system":"http://terminology.hl7.org/CodeSystem/measure-data-usage","code":"risk-adjustment-factor"}]}],"description":"Risk Variable First Albumin In Encounter","criteria":{"language":"text/cql-identifier","expression":"Risk Variable First Albumin In Encounter"}},{"id":"risk-variable-first-arterial-ph-in-encounter","extension":[{"url":"http://hl7.org/fhir/us/cqfmeasures/StructureDefinition/cqfm-includeInReportType","valueCode":"individual"},{"url":"http://hl7.org/fhir/us/cqfmeasures/StructureDefinition/cqfm-includeInReportType","valueCode":"subject-list"},{"url":"http://hl7.org/fhir/us/cqfmeasures/StructureDefinition/cqfm-includeInReportType","valueCode":"summary"},{"url":"http://hl7.org/fhir/us/cqfmeasures/StructureDefinition/cqfm-includeInReportType","valueCode":"data-collection"}],"usage":[{"coding":[{"system":"http://terminology.hl7.org/CodeSystem/measure-data-usage","code":"risk-adjustment-factor"}]}],"description":"Risk Variable First Arterial pH In Encounter","criteria":{"language":"text/cql-identifier","expression":"Risk Variable First Arterial pH In Encounter"}},{"id":"risk-variable-first-ast-in-encounter","extension":[{"url":"http://hl7.org/fhir/us/cqfmeasures/StructureDefinition/cqfm-includeInReportType","valueCode":"individual"},{"url":"http://hl7.org/fhir/us/cqfmeasures/StructureDefinition/cqfm-includeInReportType","valueCode":"subject-list"},{"url":"http://hl7.org/fhir/us/cqfmeasures/StructureDefinition/cqfm-includeInReportType","valueCode":"summary"},{"url":"http://hl7.org/fhir/us/cqfmeasures/StructureDefinition/cqfm-includeInReportType","valueCode":"data-collection"}],"usage":[{"coding":[{"system":"http://terminology.hl7.org/CodeSystem/measure-data-usage","code":"risk-adjustment-factor"}]}],"description":"Risk Variable First AST In Encounter","criteria":{"language":"text/cql-identifier","expression":"Risk Variable First AST In Encounter"}},{"id":"risk-variable-first-bicarbonate-in-encounter","extension":[{"url":"http://hl7.org/fhir/us/cqfmeasures/StructureDefinition/cqfm-includeInReportType","valueCode":"individual"},{"url":"http://hl7.org/fhir/us/cqfmeasures/StructureDefinition/cqfm-includeInReportType","valueCode":"subject-list"},{"url":"http://hl7.org/fhir/us/cqfmeasures/StructureDefinition/cqfm-includeInReportType","valueCode":"summary"},{"url":"http://hl7.org/fhir/us/cqfmeasures/StructureDefinition/cqfm-includeInReportType","valueCode":"data-collection"}],"usage":[{"coding":[{"system":"http://terminology.hl7.org/CodeSystem/measure-data-usage","code":"risk-adjustment-factor"}]}],"description":"Risk Variable First Bicarbonate In Encounter","criteria":{"language":"text/cql-identifier","expression":"Risk Variable First Bicarbonate In Encounter"}},{"id":"risk-variable-first-bilirubin-in-encounter","extension":[{"url":"http://hl7.org/fhir/us/cqfmeasures/StructureDefinition/cqfm-includeInReportType","valueCode":"individual"},{"url":"http://hl7.org/fhir/us/cqfmeasures/StructureDefinition/cqfm-includeInReportType","valueCode":"subject-list"},{"url":"http://hl7.org/fhir/us/cqfmeasures/StructureDefinition/cqfm-includeInReportType","valueCode":"summary"},{"url":"http://hl7.org/fhir/us/cqfmeasures/StructureDefinition/cqfm-includeInReportType","valueCode":"data-collection"}],"usage":[{"coding":[{"system":"http://terminology.hl7.org/CodeSystem/measure-data-usage","code":"risk-adjustment-factor"}]}],"description":"Risk Variable First Bilirubin In Encounter","criteria":{"language":"text/cql-identifier","expression":"Risk Variable First Bilirubin In Encounter"}},{"id":"risk-variable-first-blood-urea-nitrogen-in-encounter","extension":[{"url":"http://hl7.org/fhir/us/cqfmeasures/StructureDefinition/cqfm-includeInReportType","valueCode":"individual"},{"url":"http://hl7.org/fhir/us/cqfmeasures/StructureDefinition/cqfm-includeInReportType","valueCode":"subject-list"},{"url":"http://hl7.org/fhir/us/cqfmeasures/StructureDefinition/cqfm-includeInReportType","valueCode":"summary"},{"url":"http://hl7.org/fhir/us/cqfmeasures/StructureDefinition/cqfm-includeInReportType","valueCode":"data-collection"}],"usage":[{"coding":[{"system":"http://terminology.hl7.org/CodeSystem/measure-data-usage","code":"risk-adjustment-factor"}]}],"description":"Risk Variable First Blood Urea Nitrogen In Encounter","criteria":{"language":"text/cql-identifier","expression":"Risk Variable First Blood Urea Nitrogen In Encounter"}},{"id":"risk-variable-first-bmi","extension":[{"url":"http://hl7.org/fhir/us/cqfmeasures/StructureDefinition/cqfm-includeInReportType","valueCode":"individual"},{"url":"http://hl7.org/fhir/us/cqfmeasures/StructureDefinition/cqfm-includeInReportType","valueCode":"subject-list"},{"url":"http://hl7.org/fhir/us/cqfmeasures/StructureDefinition/cqfm-includeInReportType","valueCode":"summary"},{"url":"http://hl7.org/fhir/us/cqfmeasures/StructureDefinition/cqfm-includeInReportType","valueCode":"data-collection"}],"usage":[{"coding":[{"system":"http://terminology.hl7.org/CodeSystem/measure-data-usage","code":"risk-adjustment-factor"}]}],"description":"Risk Variable First BMI","criteria":{"language":"text/cql-identifier","expression":"Risk Variable First BMI"}},{"id":"risk-variable-first-body-temperature-in-encounter","extension":[{"url":"http://hl7.org/fhir/us/cqfmeasures/StructureDefinition/cqfm-includeInReportType","valueCode":"individual"},{"url":"http://hl7.org/fhir/us/cqfmeasures/StructureDefinition/cqfm-includeInReportType","valueCode":"subject-list"},{"url":"http://hl7.org/fhir/us/cqfmeasures/StructureDefinition/cqfm-includeInReportType","valueCode":"summary"},{"url":"http://hl7.org/fhir/us/cqfmeasures/StructureDefinition/cqfm-includeInReportType","valueCode":"data-collection"}],"usage":[{"coding":[{"system":"http://terminology.hl7.org/CodeSystem/measure-data-usage","code":"risk-adjustment-factor"}]}],"description":"Risk Variable First Body Temperature In Encounter","criteria":{"language":"text/cql-identifier","expression":"Risk Variable First Body Temperature In Encounter"}},{"id":"risk-variable-first-carbon-dioxide-in-encounter","extension":[{"url":"http://hl7.org/fhir/us/cqfmeasures/StructureDefinition/cqfm-includeInReportType","valueCode":"individual"},{"url":"http://hl7.org/fhir/us/cqfmeasures/StructureDefinition/cqfm-includeInReportType","valueCode":"subject-list"},{"url":"http://hl7.org/fhir/us/cqfmeasures/StructureDefinition/cqfm-includeInReportType","valueCode":"summary"},{"url":"http://hl7.org/fhir/us/cqfmeasures/StructureDefinition/cqfm-includeInReportType","valueCode":"data-collection"}],"usage":[{"coding":[{"system":"http://terminology.hl7.org/CodeSystem/measure-data-usage","code":"risk-adjustment-factor"}]}],"description":"Risk Variable First Carbon Dioxide In Encounter","criteria":{"language":"text/cql-identifier","expression":"Risk Variable First Carbon Dioxide In Encounter"}},{"id":"risk-variable-first-creatinine-in-encounter","extension":[{"url":"http://hl7.org/fhir/us/cqfmeasures/StructureDefinition/cqfm-includeInReportType","valueCode":"individual"},{"url":"http://hl7.org/fhir/us/cqfmeasures/StructureDefinition/cqfm-includeInReportType","valueCode":"subject-list"},{"url":"http://hl7.org/fhir/us/cqfmeasures/StructureDefinition/cqfm-includeInReportType","valueCode":"summary"},{"url":"http://hl7.org/fhir/us/cqfmeasures/StructureDefinition/cqfm-includeInReportType","valueCode":"data-collection"}],"usage":[{"coding":[{"system":"http://terminology.hl7.org/CodeSystem/measure-data-usage","code":"risk-adjustment-factor"}]}],"description":"Risk Variable First Creatinine In Encounter","criteria":{"language":"text/cql-identifier","expression":"Risk Variable First Creatinine In Encounter"}},{"id":"risk-variable-first-heart-rate-in-encounter","extension":[{"url":"http://hl7.org/fhir/us/cqfmeasures/StructureDefinition/cqfm-includeInReportType","valueCode":"individual"},{"url":"http://hl7.org/fhir/us/cqfmeasures/StructureDefinition/cqfm-includeInReportType","valueCode":"subject-list"},{"url":"http://hl7.org/fhir/us/cqfmeasures/StructureDefinition/cqfm-includeInReportType","valueCode":"summary"},{"url":"http://hl7.org/fhir/us/cqfmeasures/StructureDefinition/cqfm-includeInReportType","valueCode":"data-collection"}],"usage":[{"coding":[{"system":"http://terminology.hl7.org/CodeSystem/measure-data-usage","code":"risk-adjustment-factor"}]}],"description":"Risk Variable First Heart Rate In Encounter","criteria":{"language":"text/cql-identifier","expression":"Risk Variable First Heart Rate In Encounter"}},{"id":"risk-variable-first-hematocrit-in-encounter","extension":[{"url":"http://hl7.org/fhir/us/cqfmeasures/StructureDefinition/cqfm-includeInReportType","valueCode":"individual"},{"url":"http://hl7.org/fhir/us/cqfmeasures/StructureDefinition/cqfm-includeInReportType","valueCode":"subject-list"},{"url":"http://hl7.org/fhir/us/cqfmeasures/StructureDefinition/cqfm-includeInReportType","valueCode":"summary"},{"url":"http://hl7.org/fhir/us/cqfmeasures/StructureDefinition/cqfm-includeInReportType","valueCode":"data-collection"}],"usage":[{"coding":[{"system":"http://terminology.hl7.org/CodeSystem/measure-data-usage","code":"risk-adjustment-factor"}]}],"description":"Risk Variable First Hematocrit In Encounter","criteria":{"language":"text/cql-identifier","expression":"Risk Variable First Hematocrit In Encounter"}},{"id":"risk-variable-first-hemoglobin-in-encounter","extension":[{"url":"http://hl7.org/fhir/us/cqfmeasures/StructureDefinition/cqfm-includeInReportType","valueCode":"individual"},{"url":"http://hl7.org/fhir/us/cqfmeasures/StructureDefinition/cqfm-includeInReportType","valueCode":"subject-list"},{"url":"http://hl7.org/fhir/us/cqfmeasures/StructureDefinition/cqfm-includeInReportType","valueCode":"summary"},{"url":"http://hl7.org/fhir/us/cqfmeasures/StructureDefinition/cqfm-includeInReportType","valueCode":"data-collection"}],"usage":[{"coding":[{"system":"http://terminology.hl7.org/CodeSystem/measure-data-usage","code":"risk-adjustment-factor"}]}],"description":"Risk Variable First Hemoglobin In Encounter","criteria":{"language":"text/cql-identifier","expression":"Risk Variable First Hemoglobin In Encounter"}},{"id":"risk-variable-first-leukocyte-count-in-encounter","extension":[{"url":"http://hl7.org/fhir/us/cqfmeasures/StructureDefinition/cqfm-includeInReportType","valueCode":"individual"},{"url":"http://hl7.org/fhir/us/cqfmeasures/StructureDefinition/cqfm-includeInReportType","valueCode":"subject-list"},{"url":"http://hl7.org/fhir/us/cqfmeasures/StructureDefinition/cqfm-includeInReportType","valueCode":"summary"},{"url":"http://hl7.org/fhir/us/cqfmeasures/StructureDefinition/cqfm-includeInReportType","valueCode":"data-collection"}],"usage":[{"coding":[{"system":"http://terminology.hl7.org/CodeSystem/measure-data-usage","code":"risk-adjustment-factor"}]}],"description":"Risk Variable First Leukocyte Count In Encounter","criteria":{"language":"text/cql-identifier","expression":"Risk Variable First Leukocyte Count In Encounter"}},{"id":"risk-variable-first-oxygen-in-encounter","extension":[{"url":"http://hl7.org/fhir/us/cqfmeasures/StructureDefinition/cqfm-includeInReportType","valueCode":"individual"},{"url":"http://hl7.org/fhir/us/cqfmeasures/StructureDefinition/cqfm-includeInReportType","valueCode":"subject-list"},{"url":"http://hl7.org/fhir/us/cqfmeasures/StructureDefinition/cqfm-includeInReportType","valueCode":"summary"},{"url":"http://hl7.org/fhir/us/cqfmeasures/StructureDefinition/cqfm-includeInReportType","valueCode":"data-collection"}],"usage":[{"coding":[{"system":"http://terminology.hl7.org/CodeSystem/measure-data-usage","code":"risk-adjustment-factor"}]}],"description":"Risk Variable First Oxygen In Encounter","criteria":{"language":"text/cql-identifier","expression":"Risk Variable First Oxygen In Encounter"}},{"id":"risk-variable-first-platelet-count-in-encounter","extension":[{"url":"http://hl7.org/fhir/us/cqfmeasures/StructureDefinition/cqfm-includeInReportType","valueCode":"individual"},{"url":"http://hl7.org/fhir/us/cqfmeasures/StructureDefinition/cqfm-includeInReportType","valueCode":"subject-list"},{"url":"http://hl7.org/fhir/us/cqfmeasures/StructureDefinition/cqfm-includeInReportType","valueCode":"summary"},{"url":"http://hl7.org/fhir/us/cqfmeasures/StructureDefinition/cqfm-includeInReportType","valueCode":"data-collection"}],"usage":[{"coding":[{"system":"http://terminology.hl7.org/CodeSystem/measure-data-usage","code":"risk-adjustment-factor"}]}],"description":"Risk Variable First Platelet Count In Encounter","criteria":{"language":"text/cql-identifier","expression":"Risk Variable First Platelet Count In Encounter"}},{"id":"risk-variable-first-respiratory-rate-in-encounter","extension":[{"url":"http://hl7.org/fhir/us/cqfmeasures/StructureDefinition/cqfm-includeInReportType","valueCode":"individual"},{"url":"http://hl7.org/fhir/us/cqfmeasures/StructureDefinition/cqfm-includeInReportType","valueCode":"subject-list"},{"url":"http://hl7.org/fhir/us/cqfmeasures/StructureDefinition/cqfm-includeInReportType","valueCode":"summary"},{"url":"http://hl7.org/fhir/us/cqfmeasures/StructureDefinition/cqfm-includeInReportType","valueCode":"data-collection"}],"usage":[{"coding":[{"system":"http://terminology.hl7.org/CodeSystem/measure-data-usage","code":"risk-adjustment-factor"}]}],"description":"Risk Variable First Respiratory Rate In Encounter","criteria":{"language":"text/cql-identifier","expression":"Risk Variable First Respiratory Rate In Encounter"}},{"id":"risk-variable-first-sodium-in-encounter","extension":[{"url":"http://hl7.org/fhir/us/cqfmeasures/StructureDefinition/cqfm-includeInReportType","valueCode":"individual"},{"url":"http://hl7.org/fhir/us/cqfmeasures/StructureDefinition/cqfm-includeInReportType","valueCode":"subject-list"},{"url":"http://hl7.org/fhir/us/cqfmeasures/StructureDefinition/cqfm-includeInReportType","valueCode":"summary"},{"url":"http://hl7.org/fhir/us/cqfmeasures/StructureDefinition/cqfm-includeInReportType","valueCode":"data-collection"}],"usage":[{"coding":[{"system":"http://terminology.hl7.org/CodeSystem/measure-data-usage","code":"risk-adjustment-factor"}]}],"description":"Risk Variable First Sodium In Encounter","criteria":{"language":"text/cql-identifier","expression":"Risk Variable First Sodium In Encounter"}},{"id":"risk-variable-first-systolic-blood-pressure-in-encounter","extension":[{"url":"http://hl7.org/fhir/us/cqfmeasures/StructureDefinition/cqfm-includeInReportType","valueCode":"individual"},{"url":"http://hl7.org/fhir/us/cqfmeasures/StructureDefinition/cqfm-includeInReportType","valueCode":"subject-list"},{"url":"http://hl7.org/fhir/us/cqfmeasures/StructureDefinition/cqfm-includeInReportType","valueCode":"summary"},{"url":"http://hl7.org/fhir/us/cqfmeasures/StructureDefinition/cqfm-includeInReportType","valueCode":"data-collection"}],"usage":[{"coding":[{"system":"http://terminology.hl7.org/CodeSystem/measure-data-usage","code":"risk-adjustment-factor"}]}],"description":"Risk Variable First Systolic Blood Pressure In Encounter","criteria":{"language":"text/cql-identifier","expression":"Risk Variable First Systolic Blood Pressure In Encounter"}},{"id":"risk-variable-first-white-blood-cell-count-in-encounter","extension":[{"url":"http://hl7.org/fhir/us/cqfmeasures/StructureDefinition/cqfm-includeInReportType","valueCode":"individual"},{"url":"http://hl7.org/fhir/us/cqfmeasures/StructureDefinition/cqfm-includeInReportType","valueCode":"subject-list"},{"url":"http://hl7.org/fhir/us/cqfmeasures/StructureDefinition/cqfm-includeInReportType","valueCode":"summary"},{"url":"http://hl7.org/fhir/us/cqfmeasures/StructureDefinition/cqfm-includeInReportType","valueCode":"data-collection"}],"usage":[{"coding":[{"system":"http://terminology.hl7.org/CodeSystem/measure-data-usage","code":"risk-adjustment-factor"}]}],"description":"Risk Variable First White Blood Cell Count In Encounter","criteria":{"language":"text/cql-identifier","expression":"Risk Variable First White Blood Cell Count In Encounter"}},{"id":"risk-variable-principal-procedure","extension":[{"url":"http://hl7.org/fhir/us/cqfmeasures/StructureDefinition/cqfm-includeInReportType","valueCode":"individual"},{"url":"http://hl7.org/fhir/us/cqfmeasures/StructureDefinition/cqfm-includeInReportType","valueCode":"subject-list"},{"url":"http://hl7.org/fhir/us/cqfmeasures/StructureDefinition/cqfm-includeInReportType","valueCode":"summary"},{"url":"http://hl7.org/fhir/us/cqfmeasures/StructureDefinition/cqfm-includeInReportType","valueCode":"data-collection"}],"usage":[{"coding":[{"system":"http://terminology.hl7.org/CodeSystem/measure-data-usage","code":"risk-adjustment-factor"}]}],"description":"Risk Variable Principal Procedure","criteria":{"language":"text/cql-identifier","expression":"Risk Variable Principal Procedure"}}]},"request":{"method":"PUT","url":"Measure/CMS1218FHIRHHRF"}}]}