{"resourceType":"Bundle","id":"tests-777e1d15-3299-4be2-aa29-48348d3caf68-bundle","type":"transaction","entry":[{"fullUrl":"Bundle/tests-777e1d15-3299-4be2-aa29-48348d3caf68-bundle","resource":{"resourceType":"Bundle","id":"tests-777e1d15-3299-4be2-aa29-48348d3caf68-bundle","type":"transaction","entry":[{"fullUrl":"https://madie.cms.gov/Patient/777e1d15-3299-4be2-aa29-48348d3caf68","resource":{"resourceType":"Patient","id":"777e1d15-3299-4be2-aa29-48348d3caf68","meta":{"profile":["http://hl7.org/fhir/us/qicore/StructureDefinition/qicore-patient"]},"text":{"status":"generated","div":"<div xmlns=\"http://www.w3.org/1999/xhtml\"><div class=\"hapiHeaderText\">NoResult <b>SODIUMFAIL </b></div><table class=\"hapiPropertyTable\"><tbody><tr><td>Identifier</td><td>eb360e3679224871964d5b3575a59ceb3c2f6260372fb1be3ea61ac84d2937cf</td></tr><tr><td>Date of birth</td><td><span>15 June 1956</span></td></tr></tbody></table></div>"},"extension":[{"url":"http://hl7.org/fhir/us/core/StructureDefinition/us-core-race","extension":[{"url":"ombCategory","valueCoding":{"system":"urn:oid:2.16.840.1.113883.6.238","code":"1002-5","display":"American Indian or Alaska Native","userSelected":true}},{"url":"text","valueString":"American Indian or Alaska Native"}]},{"url":"http://hl7.org/fhir/us/core/StructureDefinition/us-core-ethnicity","extension":[{"url":"ombCategory","valueCoding":{"system":"urn:oid:2.16.840.1.113883.6.238","code":"2186-5","display":"Not Hispanic or Latino","userSelected":true}},{"url":"text","valueString":"Not Hispanic or Latino"}]},{"url":"http://hl7.org/fhir/us/core/StructureDefinition/us-core-sex","valueCode":"248152002"}],"identifier":[{"type":{"coding":[{"system":"http://terminology.hl7.org/CodeSystem/v2-0203","code":"MR"}]},"system":"https://bonnie-fhir.healthit.gov/","value":"63ec096bccb3770120fea0ad"}],"active":true,"name":[{"use":"usual","family":"OxygenAdminPass","given":["OxygenAdminProcStartsBeforeED"]}],"gender":"female","birthDate":"1941-07-01"},"request":{"method":"PUT","url":"Patient/777e1d15-3299-4be2-aa29-48348d3caf68"}},{"fullUrl":"https://madie.cms.gov/Encounter/d30fe78b-8362-4690-a6d2-ab22ee3cb196","resource":{"resourceType":"Encounter","id":"d30fe78b-8362-4690-a6d2-ab22ee3cb196","meta":{"profile":["http://hl7.org/fhir/us/qicore/StructureDefinition/qicore-encounter"]},"status":"finished","class":{"system":"http://terminology.hl7.org/CodeSystem/v3-ActCode","code":"EMR","display":"emergency","userSelected":true},"type":[{"coding":[{"system":"http://snomed.info/sct","code":"4525004","display":"Emergency department patient visit (procedure)"}]}],"subject":{"reference":"Patient/777e1d15-3299-4be2-aa29-48348d3caf68"},"period":{"start":"2026-07-01T12:01:00.000+00:00","end":"2026-07-01T14:15:00.000+00:00"}},"request":{"method":"PUT","url":"Encounter/d30fe78b-8362-4690-a6d2-ab22ee3cb196"}},{"fullUrl":"https://madie.cms.gov/Encounter/39bc4d44-6cac-4ec1-9f2f-41f3cb85dab0","resource":{"resourceType":"Encounter","id":"39bc4d44-6cac-4ec1-9f2f-41f3cb85dab0","meta":{"profile":["http://hl7.org/fhir/us/qicore/StructureDefinition/qicore-encounter"]},"status":"finished","class":{"system":"http://terminology.hl7.org/CodeSystem/v3-ActCode","code":"IMP","display":"inpatient encounter","userSelected":true},"type":[{"coding":[{"system":"http://snomed.info/sct","code":"183452005"}]}],"subject":{"reference":"Patient/777e1d15-3299-4be2-aa29-48348d3caf68"},"period":{"start":"2026-07-01T14:15:00.000+00:00","end":"2026-07-05T11:15:00.000+00:00"}},"request":{"method":"PUT","url":"Encounter/39bc4d44-6cac-4ec1-9f2f-41f3cb85dab0"}},{"fullUrl":"https://madie.cms.gov/ServiceRequest/6bd1413e-8fcd-4752-93ab-66c30f9304a6","resource":{"resourceType":"ServiceRequest","id":"6bd1413e-8fcd-4752-93ab-66c30f9304a6","meta":{"profile":["http://hl7.org/fhir/us/qicore/StructureDefinition/qicore-servicerequest"]},"status":"active","intent":"order","code":{"coding":[{"system":"http://snomed.info/sct","version":"2024-09","code":"371908008","display":"Oxygen administration by mask (procedure)","userSelected":true}]},"subject":{"reference":"Patient/777e1d15-3299-4be2-aa29-48348d3caf68"},"authoredOn":"2026-07-01T12:01:00.000+00:00"},"request":{"method":"PUT","url":"ServiceRequest/6bd1413e-8fcd-4752-93ab-66c30f9304a6"}},{"fullUrl":"https://madie.cms.gov/Procedure/90e70477-79d9-4c2e-b830-c0135def8d28","resource":{"resourceType":"Procedure","id":"90e70477-79d9-4c2e-b830-c0135def8d28","meta":{"profile":["http://hl7.org/fhir/us/qicore/StructureDefinition/qicore-procedure"]},"extension":[{"url":"http://hl7.org/fhir/us/qicore/StructureDefinition/qicore-recorded","valueDateTime":"2026-07-01T16:01:00.000+00:00"}],"status":"completed","code":{"coding":[{"system":"http://snomed.info/sct","code":"243136002"}]},"subject":{"reference":"Patient/777e1d15-3299-4be2-aa29-48348d3caf68"},"performedPeriod":{"start":"2026-07-01T09:15:00.000+00:00","end":"2026-07-01T12:01:00.000+00:00"}},"request":{"method":"PUT","url":"Procedure/90e70477-79d9-4c2e-b830-c0135def8d28"}},{"fullUrl":"https://madie.cms.gov/Coverage/b501adfb-c6e8-4107-968c-22a0d16fdcc0","resource":{"resourceType":"Coverage","id":"b501adfb-c6e8-4107-968c-22a0d16fdcc0","meta":{"profile":["http://hl7.org/fhir/us/qicore/StructureDefinition/qicore-coverage"]},"status":"active","type":{"coding":[{"system":"https://nahdo.org/sopt","version":"1.0.1","code":"1","display":"MEDICARE","userSelected":true}]},"subscriberId":"AB9876","beneficiary":{"reference":"Patient/777e1d15-3299-4be2-aa29-48348d3caf68"},"relationship":{"coding":[{"system":"http://terminology.hl7.org/CodeSystem/subscriber-relationship","code":"self"}]},"payor":[{"reference":"Organization/123456"}]},"request":{"method":"PUT","url":"Coverage/b501adfb-c6e8-4107-968c-22a0d16fdcc0"}},{"fullUrl":"https://madie.cms.gov/Practitioner/becd0f77-5f7d-4480-a070-0cdf436d7146","resource":{"resourceType":"Practitioner","id":"becd0f77-5f7d-4480-a070-0cdf436d7146","meta":{"profile":["http://hl7.org/fhir/us/qicore/StructureDefinition/qicore-practitioner"]},"identifier":[{"system":"http://hl7.org/fhir/sid/us-npi","value":"0723660813"}],"name":[{"family":"Evil","prefix":["Dr"]}]},"request":{"method":"PUT","url":"Practitioner/becd0f77-5f7d-4480-a070-0cdf436d7146"}},{"fullUrl":"https://madie.cms.gov/MeasureReport/80004741-c0c8-4de1-b722-75142e89d2d2","resource":{"resourceType":"MeasureReport","id":"80004741-c0c8-4de1-b722-75142e89d2d2","meta":{"profile":["http://hl7.org/fhir/us/cqfmeasures/StructureDefinition/test-case-cqfm"]},"contained":[{"resourceType":"Parameters","id":"08013b91-81ae-4f02-b261-82f1f5b6c936-parameters","parameter":[{"name":"subject","valueString":"777e1d15-3299-4be2-aa29-48348d3caf68"}]}],"extension":[{"url":"http://hl7.org/fhir/StructureDefinition/cqf-inputParameters","valueReference":{"reference":"#08013b91-81ae-4f02-b261-82f1f5b6c936-parameters"}},{"url":"http://hl7.org/fhir/us/cqfmeasures/StructureDefinition/cqfm-testCaseDescription","valueMarkdown":"Oxygen procedure interval begins prior to and ends on arrival to ED, admitted to inpatient.  Service request order for oxygen on arrival to ED."}],"modifierExtension":[{"url":"http://hl7.org/fhir/us/cqfmeasures/StructureDefinition/cqfm-isTestCase","valueBoolean":true}],"status":"complete","type":"individual","measure":"https://madie.cms.gov/Measure/CMSFHIR529HybridHospitalWideReadmission","period":{"start":"2026-07-01","end":"2027-06-30"},"group":[{"id":"Group_1","population":[{"id":"InitialPopulation_1","code":{"coding":[{"system":"http://terminology.hl7.org/CodeSystem/measure-population","code":"initial-population","display":"Initial Population"}]},"count":1}],"measureScore":{"value":0.0}}],"evaluatedResource":[{"reference":"Patient/777e1d15-3299-4be2-aa29-48348d3caf68"},{"reference":"Encounter/d30fe78b-8362-4690-a6d2-ab22ee3cb196"},{"reference":"Encounter/39bc4d44-6cac-4ec1-9f2f-41f3cb85dab0"},{"reference":"ServiceRequest/6bd1413e-8fcd-4752-93ab-66c30f9304a6"},{"reference":"Procedure/90e70477-79d9-4c2e-b830-c0135def8d28"},{"reference":"Coverage/b501adfb-c6e8-4107-968c-22a0d16fdcc0"},{"reference":"Practitioner/becd0f77-5f7d-4480-a070-0cdf436d7146"}]},"request":{"method":"PUT","url":"MeasureReport/80004741-c0c8-4de1-b722-75142e89d2d2"}}]},"request":{"method":"PUT","url":"Bundle/tests-777e1d15-3299-4be2-aa29-48348d3caf68-bundle"}}]}