{"resourceType":"Bundle","id":"tests-98360de4-60ff-4a6d-840f-785ad59628e1-bundle","type":"transaction","entry":[{"fullUrl":"Bundle/tests-98360de4-60ff-4a6d-840f-785ad59628e1-bundle","resource":{"resourceType":"Bundle","id":"tests-98360de4-60ff-4a6d-840f-785ad59628e1-bundle","type":"transaction","entry":[{"fullUrl":"https://madie.cms.gov/Patient/98360de4-60ff-4a6d-840f-785ad59628e1","resource":{"resourceType":"Patient","id":"98360de4-60ff-4a6d-840f-785ad59628e1","meta":{"profile":["http://hl7.org/fhir/us/qicore/StructureDefinition/qicore-patient"]},"text":{"status":"generated","div":"<div xmlns=\"http://www.w3.org/1999/xhtml\"><div class=\"hapiHeaderText\">NoResult <b>SODIUMFAIL </b></div><table class=\"hapiPropertyTable\"><tbody><tr><td>Identifier</td><td>eb360e3679224871964d5b3575a59ceb3c2f6260372fb1be3ea61ac84d2937cf</td></tr><tr><td>Date of birth</td><td><span>15 June 1956</span></td></tr></tbody></table></div>"},"extension":[{"url":"http://hl7.org/fhir/us/core/StructureDefinition/us-core-race","extension":[{"url":"ombCategory","valueCoding":{"system":"urn:oid:2.16.840.1.113883.6.238","code":"1002-5","display":"American Indian or Alaska Native","userSelected":true}},{"url":"text","valueString":"American Indian or Alaska Native"}]},{"url":"http://hl7.org/fhir/us/core/StructureDefinition/us-core-ethnicity","extension":[{"url":"ombCategory","valueCoding":{"system":"urn:oid:2.16.840.1.113883.6.238","code":"2186-5","display":"Not Hispanic or Latino","userSelected":true}},{"url":"text","valueString":"Not Hispanic or Latino"}]},{"url":"http://hl7.org/fhir/us/core/StructureDefinition/us-core-sex","valueCode":"248153007"}],"identifier":[{"type":{"coding":[{"system":"http://terminology.hl7.org/CodeSystem/v2-0203","code":"MR"}]},"system":"https://bonnie-fhir.healthit.gov/","value":"63ec096bccb3770120fea0ad"}],"active":true,"name":[{"use":"usual","family":"OxygenAdminPass","given":["OxygenByDeviceOrderFirstMinOfEDArrival"]}],"gender":"male","birthDate":"1941-07-01"},"request":{"method":"PUT","url":"Patient/98360de4-60ff-4a6d-840f-785ad59628e1"}},{"fullUrl":"https://madie.cms.gov/Encounter/fb4fd154-7a15-4881-b388-86152a781169","resource":{"resourceType":"Encounter","id":"fb4fd154-7a15-4881-b388-86152a781169","meta":{"profile":["http://hl7.org/fhir/us/qicore/StructureDefinition/qicore-encounter"]},"status":"finished","class":{"system":"http://terminology.hl7.org/CodeSystem/v3-ActCode","code":"EMR","display":"emergency","userSelected":true},"type":[{"coding":[{"system":"http://snomed.info/sct","code":"4525004","display":"Emergency department patient visit (procedure)"}]}],"subject":{"reference":"Patient/98360de4-60ff-4a6d-840f-785ad59628e1"},"period":{"start":"2026-07-01T08:00:00.000+00:00","end":"2026-07-01T14:15:00.000+00:00"}},"request":{"method":"PUT","url":"Encounter/fb4fd154-7a15-4881-b388-86152a781169"}},{"fullUrl":"https://madie.cms.gov/Encounter/aa1f5f17-b52c-4bdb-9b29-597686e6e4c3","resource":{"resourceType":"Encounter","id":"aa1f5f17-b52c-4bdb-9b29-597686e6e4c3","meta":{"profile":["http://hl7.org/fhir/us/qicore/StructureDefinition/qicore-encounter"]},"status":"finished","class":{"system":"http://terminology.hl7.org/CodeSystem/v3-ActCode","code":"IMP","display":"inpatient encounter","userSelected":true},"type":[{"coding":[{"system":"http://snomed.info/sct","code":"183452005"}]}],"subject":{"reference":"Patient/98360de4-60ff-4a6d-840f-785ad59628e1"},"period":{"start":"2026-07-01T14:15:00.000+00:00","end":"2026-07-05T11:15:00.000+00:00"}},"request":{"method":"PUT","url":"Encounter/aa1f5f17-b52c-4bdb-9b29-597686e6e4c3"}},{"fullUrl":"https://madie.cms.gov/ServiceRequest/5a91b585-7096-4209-9f2e-6e8a02c6a7bb","resource":{"resourceType":"ServiceRequest","id":"5a91b585-7096-4209-9f2e-6e8a02c6a7bb","meta":{"profile":["http://hl7.org/fhir/us/qicore/StructureDefinition/qicore-servicerequest"]},"status":"completed","intent":"order","code":{"coding":[{"system":"http://snomed.info/sct","version":"2024-09","code":"336623009","display":"Oxygen nasal cannula (physical object)","userSelected":true}]},"subject":{"reference":"Patient/98360de4-60ff-4a6d-840f-785ad59628e1"},"authoredOn":"2026-07-01T06:59:00.000+00:00"},"request":{"method":"PUT","url":"ServiceRequest/5a91b585-7096-4209-9f2e-6e8a02c6a7bb"}},{"fullUrl":"https://madie.cms.gov/Coverage/4c61d477-ed4a-43c1-8022-83bcf3166a64","resource":{"resourceType":"Coverage","id":"4c61d477-ed4a-43c1-8022-83bcf3166a64","meta":{"profile":["http://hl7.org/fhir/us/qicore/StructureDefinition/qicore-coverage"]},"status":"active","type":{"coding":[{"system":"https://nahdo.org/sopt","version":"1.0.1","code":"1","display":"MEDICARE","userSelected":true}]},"subscriberId":"AB9876","beneficiary":{"reference":"Patient/98360de4-60ff-4a6d-840f-785ad59628e1"},"relationship":{"coding":[{"system":"http://terminology.hl7.org/CodeSystem/subscriber-relationship","code":"self"}]},"payor":[{"reference":"Organization/123456"}]},"request":{"method":"PUT","url":"Coverage/4c61d477-ed4a-43c1-8022-83bcf3166a64"}},{"fullUrl":"https://madie.cms.gov/Practitioner/08757dff-c964-41b8-a694-df31c7df56d7","resource":{"resourceType":"Practitioner","id":"08757dff-c964-41b8-a694-df31c7df56d7","meta":{"profile":["http://hl7.org/fhir/us/qicore/StructureDefinition/qicore-practitioner"]},"identifier":[{"system":"http://hl7.org/fhir/sid/us-npi","value":"0723660813"}],"name":[{"family":"Evil","prefix":["Dr"]}]},"request":{"method":"PUT","url":"Practitioner/08757dff-c964-41b8-a694-df31c7df56d7"}},{"fullUrl":"https://madie.cms.gov/MeasureReport/09ce3207-fd5c-488c-802f-b6f9d9046db6","resource":{"resourceType":"MeasureReport","id":"09ce3207-fd5c-488c-802f-b6f9d9046db6","meta":{"profile":["http://hl7.org/fhir/us/cqfmeasures/StructureDefinition/test-case-cqfm"]},"contained":[{"resourceType":"Parameters","id":"480fb4de-3e8d-4a5a-a3aa-c8d71e98b037-parameters","parameter":[{"name":"subject","valueString":"98360de4-60ff-4a6d-840f-785ad59628e1"}]}],"extension":[{"url":"http://hl7.org/fhir/StructureDefinition/cqf-inputParameters","valueReference":{"reference":"#480fb4de-3e8d-4a5a-a3aa-c8d71e98b037-parameters"}},{"url":"http://hl7.org/fhir/us/cqfmeasures/StructureDefinition/cqfm-testCaseDescription","valueMarkdown":"Oxygen nasal cannula device order 61 minutes prior to ED encounter"}],"modifierExtension":[{"url":"http://hl7.org/fhir/us/cqfmeasures/StructureDefinition/cqfm-isTestCase","valueBoolean":true}],"status":"complete","type":"individual","measure":"https://madie.cms.gov/Measure/CMSFHIR529HybridHospitalWideReadmission","period":{"start":"2026-07-01","end":"2027-06-30"},"group":[{"id":"Group_1","population":[{"id":"InitialPopulation_1","code":{"coding":[{"system":"http://terminology.hl7.org/CodeSystem/measure-population","code":"initial-population","display":"Initial Population"}]},"count":1}],"measureScore":{"value":0.0}}],"evaluatedResource":[{"reference":"Patient/98360de4-60ff-4a6d-840f-785ad59628e1"},{"reference":"Encounter/fb4fd154-7a15-4881-b388-86152a781169"},{"reference":"Encounter/aa1f5f17-b52c-4bdb-9b29-597686e6e4c3"},{"reference":"ServiceRequest/5a91b585-7096-4209-9f2e-6e8a02c6a7bb"},{"reference":"Coverage/4c61d477-ed4a-43c1-8022-83bcf3166a64"},{"reference":"Practitioner/08757dff-c964-41b8-a694-df31c7df56d7"}]},"request":{"method":"PUT","url":"MeasureReport/09ce3207-fd5c-488c-802f-b6f9d9046db6"}}]},"request":{"method":"PUT","url":"Bundle/tests-98360de4-60ff-4a6d-840f-785ad59628e1-bundle"}}]}