{
  "resourceType": "Bundle",
  "id": "tests-NumerPass-RVBMI-bundle",
  "type": "transaction",
  "entry": [ {
    "fullUrl": "https://madie.cms.gov/Patient/65163106-0b19-4548-a994-f44b35e162e0",
    "resource": {
      "resourceType": "Patient",
      "id": "65163106-0b19-4548-a994-f44b35e162e0",
      "meta": {
        "profile": [ "http://hl7.org/fhir/us/qicore/StructureDefinition/qicore-patient" ]
      },
      "extension": [ {
        "url": "http://hl7.org/fhir/us/core/StructureDefinition/us-core-race",
        "extension": [ {
          "url": "ombCategory",
          "valueCoding": {
            "system": "urn:oid:2.16.840.1.113883.6.238",
            "code": "2106-3",
            "display": "White"
          }
        }, {
          "url": "text",
          "valueString": "White"
        } ]
      }, {
        "url": "http://hl7.org/fhir/us/core/StructureDefinition/us-core-ethnicity",
        "extension": [ {
          "url": "ombCategory",
          "valueCoding": {
            "system": "urn:oid:2.16.840.1.113883.6.238",
            "code": "2135-2",
            "display": "Hispanic or Latino"
          }
        }, {
          "url": "text",
          "valueString": "Hispanic or Latino"
        } ]
      }, {
        "url": "http://hl7.org/fhir/us/core/StructureDefinition/us-core-sex",
        "valueCode": "248153007"
      } ],
      "identifier": [ {
        "system": "http://hospital.smarthealthit.org",
        "value": "999999999"
      } ],
      "name": [ {
        "family": "Example",
        "given": [ "Patient" ]
      } ],
      "gender": "female",
      "birthDate": "1956-01-01"
    },
    "request": {
      "method": "PUT",
      "url": "Patient/65163106-0b19-4548-a994-f44b35e162e0"
    }
  }, {
    "fullUrl": "https://madie.cms.gov/Encounter/f648aaa5-518f-4acf-9ebf-87a2554f9926",
    "resource": {
      "resourceType": "Encounter",
      "id": "f648aaa5-518f-4acf-9ebf-87a2554f9926",
      "meta": {
        "profile": [ "http://hl7.org/fhir/us/qicore/StructureDefinition/qicore-encounter" ]
      },
      "status": "finished",
      "class": {
        "system": "http://terminology.hl7.org/CodeSystem/v3-ActCode",
        "code": "IMP",
        "display": "inpatient encounter"
      },
      "type": [ {
        "coding": [ {
          "system": "http://snomed.info/sct",
          "code": "183452005",
          "display": "Emergency hospital admission (procedure)"
        } ]
      } ],
      "subject": {
        "reference": "Patient/65163106-0b19-4548-a994-f44b35e162e0"
      },
      "period": {
        "start": "2026-10-19T08:30:00.000+00:00",
        "end": "2026-10-21T08:15:00.000+00:00"
      },
      "reasonCode": [ {
        "coding": [ {
          "system": "http://snomed.info/sct",
          "code": "14047009"
        } ]
      }, {
        "coding": [ {
          "system": "http://snomed.info/sct",
          "code": "64859006"
        } ]
      } ]
    },
    "request": {
      "method": "PUT",
      "url": "Encounter/f648aaa5-518f-4acf-9ebf-87a2554f9926"
    }
  }, {
    "fullUrl": "https://madie.cms.gov/Encounter/721f9cfc-e499-4ec8-af6b-baf7b3797db3",
    "resource": {
      "resourceType": "Encounter",
      "id": "721f9cfc-e499-4ec8-af6b-baf7b3797db3",
      "meta": {
        "profile": [ "http://hl7.org/fhir/us/qicore/StructureDefinition/qicore-encounter" ]
      },
      "status": "finished",
      "class": {
        "system": "http://terminology.hl7.org/CodeSystem/v3-ActCode",
        "code": "EMER",
        "display": "emergency encounter"
      },
      "type": [ {
        "coding": [ {
          "system": "http://snomed.info/sct",
          "code": "4525004",
          "display": "Emergency department patient visit (procedure)"
        } ]
      } ],
      "subject": {
        "reference": "Patient/65163106-0b19-4548-a994-f44b35e162e0"
      },
      "period": {
        "start": "2026-10-18T09:15:00.000+00:00",
        "end": "2026-10-19T08:15:00.000+00:00"
      }
    },
    "request": {
      "method": "PUT",
      "url": "Encounter/721f9cfc-e499-4ec8-af6b-baf7b3797db3"
    }
  }, {
    "fullUrl": "https://madie.cms.gov/Claim/1f9b58d3-6cfa-4e86-a371-c0a38edc22db",
    "resource": {
      "resourceType": "Claim",
      "id": "1f9b58d3-6cfa-4e86-a371-c0a38edc22db",
      "meta": {
        "profile": [ "http://hl7.org/fhir/us/qicore/StructureDefinition/qicore-claim" ]
      },
      "status": "active",
      "type": {
        "coding": [ {
          "system": "http://terminology.hl7.org/CodeSystem/claim-type",
          "code": "professional",
          "display": "Professional"
        } ]
      },
      "use": "claim",
      "patient": {
        "reference": "Patient/65163106-0b19-4548-a994-f44b35e162e0"
      },
      "created": "2026-10-22",
      "provider": {
        "reference": "Practitioner/practitioner-1"
      },
      "priority": {
        "coding": [ {
          "system": "http://terminology.hl7.org/CodeSystem/processpriority",
          "code": "normal"
        } ]
      },
      "diagnosis": [ {
        "sequence": 1,
        "diagnosisCodeableConcept": {
          "coding": [ {
            "system": "http://snomed.info/sct",
            "code": "14047009"
          } ]
        }
      } ],
      "insurance": [ {
        "sequence": 1,
        "focal": true,
        "coverage": {
          "reference": "Coverage/coverage-1"
        }
      } ],
      "item": [ {
        "sequence": 1,
        "diagnosisSequence": [ 1, 2 ],
        "productOrService": {
          "coding": [ {
            "system": "http://terminology.hl7.org/CodeSystem/ex-USCLS",
            "code": "1101"
          } ]
        },
        "encounter": [ {
          "reference": "Encounter/f648aaa5-518f-4acf-9ebf-87a2554f9926"
        } ]
      } ]
    },
    "request": {
      "method": "PUT",
      "url": "Claim/1f9b58d3-6cfa-4e86-a371-c0a38edc22db"
    }
  }, {
    "fullUrl": "https://madie.cms.gov/Claim/4d101707-e9d5-47f8-8967-6106e1a9e045",
    "resource": {
      "resourceType": "Claim",
      "id": "4d101707-e9d5-47f8-8967-6106e1a9e045",
      "meta": {
        "profile": [ "http://hl7.org/fhir/us/qicore/StructureDefinition/qicore-claim" ]
      },
      "status": "active",
      "type": {
        "coding": [ {
          "system": "http://terminology.hl7.org/CodeSystem/claim-type",
          "code": "institutional",
          "display": "Institutional"
        } ]
      },
      "use": "claim",
      "patient": {
        "reference": "Patient/65163106-0b19-4548-a994-f44b35e162e0"
      },
      "created": "2026-11-01",
      "provider": {
        "reference": "Practitioner/practitioner-1"
      },
      "priority": {
        "coding": [ {
          "system": "http://terminology.hl7.org/CodeSystem/processpriority",
          "code": "normal"
        } ]
      },
      "diagnosis": [ {
        "sequence": 1,
        "diagnosisCodeableConcept": {
          "coding": [ {
            "system": "http://hl7.org/fhir/sid/icd-10-cm",
            "code": "M80.00XA",
            "display": "Age-related osteoporosis with current pathological fracture, unspecified site, initial encounter for fracture"
          } ]
        }
      } ],
      "insurance": [ {
        "sequence": 1,
        "focal": true,
        "coverage": {
          "reference": "Coverage/coverage-1"
        }
      } ],
      "item": [ {
        "sequence": 1,
        "diagnosisSequence": [ 1, 2 ],
        "productOrService": {
          "coding": [ {
            "system": "http://terminology.hl7.org/CodeSystem/ex-USCLS",
            "code": "1101"
          } ]
        },
        "encounter": [ {
          "reference": "Encounter/f648aaa5-518f-4acf-9ebf-87a2554f9926"
        } ]
      } ]
    },
    "request": {
      "method": "PUT",
      "url": "Claim/4d101707-e9d5-47f8-8967-6106e1a9e045"
    }
  }, {
    "fullUrl": "https://madie.cms.gov/Observation/42850c3a-f9af-4c03-a684-86c1a0965896",
    "resource": {
      "resourceType": "Observation",
      "id": "42850c3a-f9af-4c03-a684-86c1a0965896",
      "meta": {
        "profile": [ "http://hl7.org/fhir/us/core/StructureDefinition/us-core-bmi" ]
      },
      "status": "final",
      "category": [ {
        "coding": [ {
          "system": "http://terminology.hl7.org/CodeSystem/observation-category",
          "code": "vital-signs",
          "display": "Vital Signs"
        } ]
      } ],
      "code": {
        "coding": [ {
          "system": "http://loinc.org",
          "code": "39156-5",
          "display": "Body mass index (BMI) [Ratio]"
        } ],
        "text": "BMI"
      },
      "subject": {
        "reference": "Patient/65163106-0b19-4548-a994-f44b35e162e0"
      },
      "effectiveDateTime": "2026-10-20T08:00:00.000+00:00",
      "valueQuantity": {
        "value": 28.3,
        "unit": "kg/m2",
        "system": "http://unitsofmeasure.org",
        "code": "kg/m2"
      }
    },
    "request": {
      "method": "PUT",
      "url": "Observation/42850c3a-f9af-4c03-a684-86c1a0965896"
    }
  }, {
    "fullUrl": "https://madie.cms.gov/Practitioner/f2e83e28-56ee-4228-9f61-5433090cfb6c",
    "resource": {
      "resourceType": "Practitioner",
      "id": "f2e83e28-56ee-4228-9f61-5433090cfb6c",
      "identifier": [ {
        "system": "http://www.cms.gov/identifiers/pracitioners",
        "value": "P12345"
      } ],
      "name": [ {
        "use": "official",
        "family": "Smith",
        "given": [ "John" ]
      } ],
      "qualification": [ {
        "identifier": [ {
          "system": "http://hl7.org/fhir/sid/us-npi",
          "value": "1234567890"
        } ],
        "code": {
          "coding": [ {
            "system": "http://terminology.hl7.org/CodeSystem/v2-0203",
            "code": "MD",
            "display": "Medical License number"
          } ]
        }
      } ]
    },
    "request": {
      "method": "PUT",
      "url": "Practitioner/f2e83e28-56ee-4228-9f61-5433090cfb6c"
    }
  }, {
    "fullUrl": "https://madie.cms.gov/Coverage/c95080a8-1fad-4c9a-af87-488a491b92a5",
    "resource": {
      "resourceType": "Coverage",
      "id": "c95080a8-1fad-4c9a-af87-488a491b92a5",
      "status": "active",
      "beneficiary": {
        "reference": "Patient/65163106-0b19-4548-a994-f44b35e162e0"
      },
      "payor": [ {
        "reference": "Organization/417a4abe-c873-44bc-be5b-3f6e9fd789db"
      } ]
    },
    "request": {
      "method": "PUT",
      "url": "Coverage/c95080a8-1fad-4c9a-af87-488a491b92a5"
    }
  }, {
    "fullUrl": "https://madie.cms.gov/Organization/417a4abe-c873-44bc-be5b-3f6e9fd789db",
    "resource": {
      "resourceType": "Organization",
      "id": "417a4abe-c873-44bc-be5b-3f6e9fd789db",
      "identifier": [ {
        "system": "http://cms.gov/insurance-ids",
        "value": "AET12345"
      } ],
      "type": [ {
        "coding": [ {
          "system": "http://terminology.hl7.org/CodeSystem/organization-type",
          "code": "prov",
          "display": "Healthcare Provider"
        } ]
      } ],
      "name": "Aetna Insurance",
      "telecom": [ {
        "system": "phone",
        "value": "+1-800-123-4567"
      } ],
      "address": [ {
        "line": [ "123 Main Street" ],
        "city": "Cityville",
        "state": "CA",
        "postalCode": "12345",
        "country": "USA"
      } ]
    },
    "request": {
      "method": "PUT",
      "url": "Organization/417a4abe-c873-44bc-be5b-3f6e9fd789db"
    }
  }, {
    "fullUrl": "https://madie.cms.gov/MeasureReport/2c231ee1-8c2e-44d9-b7ef-df5ad7ce532e",
    "resource": {
      "resourceType": "MeasureReport",
      "id": "2c231ee1-8c2e-44d9-b7ef-df5ad7ce532e",
      "meta": {
        "profile": [ "http://hl7.org/fhir/us/cqfmeasures/StructureDefinition/test-case-cqfm" ]
      },
      "contained": [ {
        "resourceType": "Parameters",
        "id": "01f3525c-c600-4a6c-9f7a-d086dc68e3dd-parameters",
        "parameter": [ {
          "name": "subject",
          "valueString": "65163106-0b19-4548-a994-f44b35e162e0"
        } ]
      } ],
      "extension": [ {
        "url": "http://hl7.org/fhir/StructureDefinition/cqf-inputParameters",
        "valueReference": {
          "reference": "#01f3525c-c600-4a6c-9f7a-d086dc68e3dd-parameters"
        }
      }, {
        "url": "http://hl7.org/fhir/us/cqfmeasures/StructureDefinition/cqfm-testCaseDescription",
        "valueMarkdown": "Encounter with a BMI Risk Variable"
      } ],
      "modifierExtension": [ {
        "url": "http://hl7.org/fhir/us/cqfmeasures/StructureDefinition/cqfm-isTestCase",
        "valueBoolean": true
      } ],
      "status": "complete",
      "type": "individual",
      "measure": "https://madie.cms.gov/Measure/CMS1017FHIRHHFI",
      "period": {
        "start": "2026-01-01",
        "end": "2026-12-31"
      },
      "group": [ {
        "id": "Group_1",
        "population": [ {
          "id": "InitialPopulation_1",
          "code": {
            "coding": [ {
              "system": "http://terminology.hl7.org/CodeSystem/measure-population",
              "code": "initial-population",
              "display": "Initial Population"
            } ]
          },
          "count": 1
        }, {
          "id": "Denominator_1",
          "code": {
            "coding": [ {
              "system": "http://terminology.hl7.org/CodeSystem/measure-population",
              "code": "denominator",
              "display": "Denominator"
            } ]
          },
          "count": 1
        }, {
          "id": "DenominatorExclusion_1",
          "code": {
            "coding": [ {
              "system": "http://terminology.hl7.org/CodeSystem/measure-population",
              "code": "denominator-exclusion",
              "display": "Denominator Exclusion"
            } ]
          },
          "count": 0
        }, {
          "id": "Numerator_1",
          "code": {
            "coding": [ {
              "system": "http://terminology.hl7.org/CodeSystem/measure-population",
              "code": "numerator",
              "display": "Numerator"
            } ]
          },
          "count": 1
        }, {
          "id": "NumeratorExclusion_1",
          "code": {
            "coding": [ {
              "system": "http://terminology.hl7.org/CodeSystem/measure-population",
              "code": "numerator-exclusion",
              "display": "Numerator Exclusion"
            } ]
          },
          "count": 0
        }, {
          "id": "MeasureObservation_1_1_1",
          "code": {
            "coding": [ {
              "system": "http://terminology.hl7.org/CodeSystem/measure-population",
              "code": "measure-observation",
              "display": "Measure Observation"
            } ]
          },
          "count": 2
        }, {
          "id": "MeasureObservation_1_2_1",
          "code": {
            "coding": [ {
              "system": "http://terminology.hl7.org/CodeSystem/measure-population",
              "code": "measure-observation",
              "display": "Measure Observation"
            } ]
          },
          "count": 1
        } ],
        "measureScore": {
          "value": 0.0
        }
      } ],
      "evaluatedResource": [ {
        "reference": "Patient/65163106-0b19-4548-a994-f44b35e162e0"
      }, {
        "reference": "Encounter/f648aaa5-518f-4acf-9ebf-87a2554f9926"
      }, {
        "reference": "Encounter/721f9cfc-e499-4ec8-af6b-baf7b3797db3"
      }, {
        "reference": "Claim/1f9b58d3-6cfa-4e86-a371-c0a38edc22db"
      }, {
        "reference": "Claim/4d101707-e9d5-47f8-8967-6106e1a9e045"
      }, {
        "reference": "Observation/42850c3a-f9af-4c03-a684-86c1a0965896"
      }, {
        "reference": "Practitioner/f2e83e28-56ee-4228-9f61-5433090cfb6c"
      }, {
        "reference": "Coverage/c95080a8-1fad-4c9a-af87-488a491b92a5"
      }, {
        "reference": "Organization/417a4abe-c873-44bc-be5b-3f6e9fd789db"
      } ]
    },
    "request": {
      "method": "PUT",
      "url": "MeasureReport/2c231ee1-8c2e-44d9-b7ef-df5ad7ce532e"
    }
  } ]
}