{"resourceType":"Bundle","id":"tests-fcb541c7-e3c5-42e0-b3e3-56e1e8b2404b-bundle","type":"transaction","entry":[{"fullUrl":"https://madie.cms.gov/Patient/fcb541c7-e3c5-42e0-b3e3-56e1e8b2404b","resource":{"resourceType":"Patient","id":"fcb541c7-e3c5-42e0-b3e3-56e1e8b2404b","meta":{"profile":["http://hl7.org/fhir/us/qicore/StructureDefinition/qicore-patient"]},"text":{"status":"generated","div":"<div xmlns=\"http://www.w3.org/1999/xhtml\"><div class=\"hapiHeaderText\">NoResult <b>SODIUMFAIL </b></div><table class=\"hapiPropertyTable\"><tbody><tr><td>Identifier</td><td>eb360e3679224871964d5b3575a59ceb3c2f6260372fb1be3ea61ac84d2937cf</td></tr><tr><td>Date of birth</td><td><span>15 June 1956</span></td></tr></tbody></table></div>"},"extension":[{"url":"http://hl7.org/fhir/us/core/StructureDefinition/us-core-race","extension":[{"url":"ombCategory","valueCoding":{"system":"urn:oid:2.16.840.1.113883.6.238","code":"1002-5","display":"American Indian or Alaska Native","userSelected":true}},{"url":"text","valueString":"American Indian or Alaska Native"}]},{"url":"http://hl7.org/fhir/us/core/StructureDefinition/us-core-ethnicity","extension":[{"url":"ombCategory","valueCoding":{"system":"urn:oid:2.16.840.1.113883.6.238","code":"2186-5","display":"Not Hispanic or Latino","userSelected":true}},{"url":"text","valueString":"Not Hispanic or Latino"}]},{"url":"http://hl7.org/fhir/us/core/StructureDefinition/us-core-sex","valueCode":"248153007"}],"identifier":[{"type":{"coding":[{"system":"http://terminology.hl7.org/CodeSystem/v2-0203","code":"MR"}]},"system":"https://bonnie-fhir.healthit.gov/","value":"63ec096bccb3770120fea0ad"}],"active":true,"name":[{"use":"usual","family":"OxygenAdminPass","given":["OxygenByDeviceOrderDuringFirstMinOfEDEnc"]}],"gender":"male","birthDate":"1941-07-01"},"request":{"method":"PUT","url":"Patient/fcb541c7-e3c5-42e0-b3e3-56e1e8b2404b"}},{"fullUrl":"https://madie.cms.gov/Encounter/21eb47d4-b8e6-4dcb-933c-9e320ce98892","resource":{"resourceType":"Encounter","id":"21eb47d4-b8e6-4dcb-933c-9e320ce98892","meta":{"profile":["http://hl7.org/fhir/us/qicore/StructureDefinition/qicore-encounter"]},"status":"finished","class":{"system":"http://terminology.hl7.org/CodeSystem/v3-ActCode","code":"EMR","display":"emergency","userSelected":true},"type":[{"coding":[{"system":"http://snomed.info/sct","code":"4525004","display":"Emergency department patient visit (procedure)"}]}],"subject":{"reference":"Patient/fcb541c7-e3c5-42e0-b3e3-56e1e8b2404b"},"period":{"start":"2026-07-01T12:01:00.000+00:00","end":"2026-07-01T14:15:00.000+00:00"}},"request":{"method":"PUT","url":"Encounter/21eb47d4-b8e6-4dcb-933c-9e320ce98892"}},{"fullUrl":"https://madie.cms.gov/Encounter/c91b5552-fc67-4502-89b1-2bf5e574c9b0","resource":{"resourceType":"Encounter","id":"c91b5552-fc67-4502-89b1-2bf5e574c9b0","meta":{"profile":["http://hl7.org/fhir/us/qicore/StructureDefinition/qicore-encounter"]},"status":"finished","class":{"system":"http://terminology.hl7.org/CodeSystem/v3-ActCode","code":"IMP","display":"inpatient encounter","userSelected":true},"type":[{"coding":[{"system":"http://snomed.info/sct","code":"183452005"}]}],"subject":{"reference":"Patient/fcb541c7-e3c5-42e0-b3e3-56e1e8b2404b"},"period":{"start":"2026-07-01T14:15:00.000+00:00","end":"2026-07-05T11:15:00.000+00:00"}},"request":{"method":"PUT","url":"Encounter/c91b5552-fc67-4502-89b1-2bf5e574c9b0"}},{"fullUrl":"https://madie.cms.gov/ServiceRequest/81928212-458a-4c23-94b3-8f371656e405","resource":{"resourceType":"ServiceRequest","id":"81928212-458a-4c23-94b3-8f371656e405","meta":{"profile":["http://hl7.org/fhir/us/qicore/StructureDefinition/qicore-servicerequest"]},"status":"completed","intent":"order","code":{"coding":[{"system":"http://snomed.info/sct","version":"2024-09","code":"336623009","display":"Oxygen nasal cannula (physical object)","userSelected":true}]},"subject":{"reference":"Patient/fcb541c7-e3c5-42e0-b3e3-56e1e8b2404b"},"authoredOn":"2026-07-01T12:01:00.000+00:00"},"request":{"method":"PUT","url":"ServiceRequest/81928212-458a-4c23-94b3-8f371656e405"}},{"fullUrl":"https://madie.cms.gov/Coverage/643d15b0-87ac-42d7-9281-09aa245052cf","resource":{"resourceType":"Coverage","id":"643d15b0-87ac-42d7-9281-09aa245052cf","meta":{"profile":["http://hl7.org/fhir/us/qicore/StructureDefinition/qicore-coverage"]},"status":"active","type":{"coding":[{"system":"https://nahdo.org/sopt","version":"1.0.1","code":"1","display":"MEDICARE","userSelected":true}]},"subscriberId":"AB9876","beneficiary":{"reference":"Patient/fcb541c7-e3c5-42e0-b3e3-56e1e8b2404b"},"relationship":{"coding":[{"system":"http://terminology.hl7.org/CodeSystem/subscriber-relationship","code":"self"}]},"payor":[{"reference":"Organization/123456"}]},"request":{"method":"PUT","url":"Coverage/643d15b0-87ac-42d7-9281-09aa245052cf"}},{"fullUrl":"https://madie.cms.gov/Practitioner/aaf453ea-c04b-490a-bccf-506b362a15d5","resource":{"resourceType":"Practitioner","id":"aaf453ea-c04b-490a-bccf-506b362a15d5","meta":{"profile":["http://hl7.org/fhir/us/qicore/StructureDefinition/qicore-practitioner"]},"identifier":[{"system":"http://hl7.org/fhir/sid/us-npi","value":"0723660813"}],"name":[{"family":"Evil","prefix":["Dr"]}]},"request":{"method":"PUT","url":"Practitioner/aaf453ea-c04b-490a-bccf-506b362a15d5"}},{"fullUrl":"https://madie.cms.gov/MeasureReport/d311ffac-8ee8-471a-8287-2ea1024183b3","resource":{"resourceType":"MeasureReport","id":"d311ffac-8ee8-471a-8287-2ea1024183b3","meta":{"profile":["http://hl7.org/fhir/us/cqfmeasures/StructureDefinition/test-case-cqfm"]},"contained":[{"resourceType":"Parameters","id":"754418ba-6dee-4fcd-b99f-43bde29b2cb3-parameters","parameter":[{"name":"subject","valueString":"fcb541c7-e3c5-42e0-b3e3-56e1e8b2404b"}]}],"extension":[{"url":"http://hl7.org/fhir/StructureDefinition/cqf-inputParameters","valueReference":{"reference":"#754418ba-6dee-4fcd-b99f-43bde29b2cb3-parameters"}},{"url":"http://hl7.org/fhir/us/cqfmeasures/StructureDefinition/cqfm-testCaseDescription","valueMarkdown":"Oxygen nasal cannula device order during first minute of ED encounter, admitted to inpatient"}],"modifierExtension":[{"url":"http://hl7.org/fhir/us/cqfmeasures/StructureDefinition/cqfm-isTestCase","valueBoolean":true}],"status":"complete","type":"individual","measure":"https://madie.cms.gov/Measure/CMSFHIR529HybridHospitalWideReadmission","period":{"start":"2026-07-01","end":"2027-06-30"},"group":[{"id":"Group_1","population":[{"id":"InitialPopulation_1","code":{"coding":[{"system":"http://terminology.hl7.org/CodeSystem/measure-population","code":"initial-population","display":"Initial Population"}]},"count":1}],"measureScore":{"value":0.0}}],"evaluatedResource":[{"reference":"Patient/fcb541c7-e3c5-42e0-b3e3-56e1e8b2404b"},{"reference":"Encounter/21eb47d4-b8e6-4dcb-933c-9e320ce98892"},{"reference":"Encounter/c91b5552-fc67-4502-89b1-2bf5e574c9b0"},{"reference":"ServiceRequest/81928212-458a-4c23-94b3-8f371656e405"},{"reference":"Coverage/643d15b0-87ac-42d7-9281-09aa245052cf"},{"reference":"Practitioner/aaf453ea-c04b-490a-bccf-506b362a15d5"}]},"request":{"method":"PUT","url":"MeasureReport/d311ffac-8ee8-471a-8287-2ea1024183b3"}}]}