{"resourceType":"Bundle","id":"tests-cff0bad2-a331-442f-af35-fdfca825c5d2-bundle","type":"transaction","entry":[{"fullUrl":"https://madie.cms.gov/Patient/cff0bad2-a331-442f-af35-fdfca825c5d2","resource":{"resourceType":"Patient","id":"cff0bad2-a331-442f-af35-fdfca825c5d2","meta":{"profile":["http://hl7.org/fhir/us/qicore/StructureDefinition/qicore-patient"]},"text":{"status":"generated","div":"<div xmlns=\"http://www.w3.org/1999/xhtml\"><div class=\"hapiHeaderText\">NoResult <b>SODIUMFAIL </b></div><table class=\"hapiPropertyTable\"><tbody><tr><td>Identifier</td><td>eb360e3679224871964d5b3575a59ceb3c2f6260372fb1be3ea61ac84d2937cf</td></tr><tr><td>Date of birth</td><td><span>15 June 1956</span></td></tr></tbody></table></div>"},"extension":[{"url":"http://hl7.org/fhir/us/core/StructureDefinition/us-core-race","extension":[{"url":"ombCategory","valueCoding":{"system":"urn:oid:2.16.840.1.113883.6.238","code":"1002-5","display":"American Indian or Alaska Native","userSelected":true}},{"url":"text","valueString":"American Indian or Alaska Native"}]},{"url":"http://hl7.org/fhir/us/core/StructureDefinition/us-core-ethnicity","extension":[{"url":"ombCategory","valueCoding":{"system":"urn:oid:2.16.840.1.113883.6.238","code":"2186-5","display":"Not Hispanic or Latino","userSelected":true}},{"url":"text","valueString":"Not Hispanic or Latino"}]},{"url":"http://hl7.org/fhir/us/core/StructureDefinition/us-core-sex","valueCode":"248153007"}],"identifier":[{"type":{"coding":[{"system":"http://terminology.hl7.org/CodeSystem/v2-0203","code":"MR"}]},"system":"https://bonnie-fhir.healthit.gov/","value":"63ec096bccb3770120fea0ad"}],"active":true,"name":[{"use":"usual","family":"OxygenAdminPass","given":["OxygenByMaskOrderOnArrivalED"]}],"gender":"male","birthDate":"1941-07-01"},"request":{"method":"PUT","url":"Patient/cff0bad2-a331-442f-af35-fdfca825c5d2"}},{"fullUrl":"https://madie.cms.gov/Encounter/bb00d645-5682-44ee-832f-0cda2ed791ae","resource":{"resourceType":"Encounter","id":"bb00d645-5682-44ee-832f-0cda2ed791ae","meta":{"profile":["http://hl7.org/fhir/us/qicore/StructureDefinition/qicore-encounter"]},"status":"finished","class":{"system":"http://terminology.hl7.org/CodeSystem/v3-ActCode","code":"EMR","display":"emergency","userSelected":true},"type":[{"coding":[{"system":"http://snomed.info/sct","code":"4525004","display":"Emergency department patient visit (procedure)"}]}],"subject":{"reference":"Patient/cff0bad2-a331-442f-af35-fdfca825c5d2"},"period":{"start":"2026-07-01T12:01:00.000+00:00","end":"2026-07-01T14:15:00.000+00:00"}},"request":{"method":"PUT","url":"Encounter/bb00d645-5682-44ee-832f-0cda2ed791ae"}},{"fullUrl":"https://madie.cms.gov/Encounter/ce667212-fc7d-4354-8d2b-9cf36bce38aa","resource":{"resourceType":"Encounter","id":"ce667212-fc7d-4354-8d2b-9cf36bce38aa","meta":{"profile":["http://hl7.org/fhir/us/qicore/StructureDefinition/qicore-encounter"]},"status":"finished","class":{"system":"http://terminology.hl7.org/CodeSystem/v3-ActCode","code":"IMP","display":"inpatient encounter","userSelected":true},"type":[{"coding":[{"system":"http://snomed.info/sct","version":"2024-09","code":"183452005","display":"Emergency hospital admission","userSelected":true}]}],"subject":{"reference":"Patient/cff0bad2-a331-442f-af35-fdfca825c5d2"},"period":{"start":"2026-07-01T14:15:00.000+00:00","end":"2026-07-05T11:15:00.000+00:00"}},"request":{"method":"PUT","url":"Encounter/ce667212-fc7d-4354-8d2b-9cf36bce38aa"}},{"fullUrl":"https://madie.cms.gov/ServiceRequest/4663cb7c-2c0f-4e72-9be8-e408f159f2cf","resource":{"resourceType":"ServiceRequest","id":"4663cb7c-2c0f-4e72-9be8-e408f159f2cf","meta":{"profile":["http://hl7.org/fhir/us/qicore/StructureDefinition/qicore-servicerequest"]},"status":"active","intent":"order","code":{"coding":[{"system":"http://snomed.info/sct","version":"2024-09","code":"371908008","display":"Oxygen administration by mask (procedure)","userSelected":true}]},"subject":{"reference":"Patient/cff0bad2-a331-442f-af35-fdfca825c5d2"},"authoredOn":"2026-07-01T12:01:00.000+00:00"},"request":{"method":"PUT","url":"ServiceRequest/4663cb7c-2c0f-4e72-9be8-e408f159f2cf"}},{"fullUrl":"https://madie.cms.gov/Coverage/4bc0ab42-5c4d-4de0-9629-e93dfc194e1f","resource":{"resourceType":"Coverage","id":"4bc0ab42-5c4d-4de0-9629-e93dfc194e1f","meta":{"profile":["http://hl7.org/fhir/us/qicore/StructureDefinition/qicore-coverage"]},"status":"active","type":{"coding":[{"system":"https://nahdo.org/sopt","version":"1.0.1","code":"1","display":"MEDICARE","userSelected":true}]},"subscriberId":"AB9876","beneficiary":{"reference":"Patient/cff0bad2-a331-442f-af35-fdfca825c5d2"},"relationship":{"coding":[{"system":"http://terminology.hl7.org/CodeSystem/subscriber-relationship","code":"self"}]},"payor":[{"reference":"Organization/123456"}]},"request":{"method":"PUT","url":"Coverage/4bc0ab42-5c4d-4de0-9629-e93dfc194e1f"}},{"fullUrl":"https://madie.cms.gov/Practitioner/a0263ec4-cfd3-46dc-a09e-604cbef4a3f0","resource":{"resourceType":"Practitioner","id":"a0263ec4-cfd3-46dc-a09e-604cbef4a3f0","meta":{"profile":["http://hl7.org/fhir/us/qicore/StructureDefinition/qicore-practitioner"]},"identifier":[{"system":"http://hl7.org/fhir/sid/us-npi","value":"0723660813"}],"name":[{"family":"Evil","prefix":["Dr"]}]},"request":{"method":"PUT","url":"Practitioner/a0263ec4-cfd3-46dc-a09e-604cbef4a3f0"}},{"fullUrl":"https://madie.cms.gov/MeasureReport/fbffa949-179e-4bd7-8be9-6f5ea9adcf4c","resource":{"resourceType":"MeasureReport","id":"fbffa949-179e-4bd7-8be9-6f5ea9adcf4c","meta":{"profile":["http://hl7.org/fhir/us/cqfmeasures/StructureDefinition/test-case-cqfm"]},"contained":[{"resourceType":"Parameters","id":"76d13da7-520f-4f75-b99a-88edb3f58fd0-parameters","parameter":[{"name":"subject","valueString":"cff0bad2-a331-442f-af35-fdfca825c5d2"}]}],"extension":[{"url":"http://hl7.org/fhir/StructureDefinition/cqf-inputParameters","valueReference":{"reference":"#76d13da7-520f-4f75-b99a-88edb3f58fd0-parameters"}},{"url":"http://hl7.org/fhir/us/cqfmeasures/StructureDefinition/cqfm-testCaseDescription","valueMarkdown":"Oxygen by mask order on ED arrival, admitted to inpatient."}],"modifierExtension":[{"url":"http://hl7.org/fhir/us/cqfmeasures/StructureDefinition/cqfm-isTestCase","valueBoolean":true}],"status":"complete","type":"individual","measure":"https://madie.cms.gov/Measure/CMSFHIR529HybridHospitalWideReadmission","period":{"start":"2026-07-01","end":"2027-06-30"},"group":[{"id":"Group_1","population":[{"id":"InitialPopulation_1","code":{"coding":[{"system":"http://terminology.hl7.org/CodeSystem/measure-population","code":"initial-population","display":"Initial Population"}]},"count":1}],"measureScore":{"value":0.0}}],"evaluatedResource":[{"reference":"Patient/cff0bad2-a331-442f-af35-fdfca825c5d2"},{"reference":"Encounter/bb00d645-5682-44ee-832f-0cda2ed791ae"},{"reference":"Encounter/ce667212-fc7d-4354-8d2b-9cf36bce38aa"},{"reference":"ServiceRequest/4663cb7c-2c0f-4e72-9be8-e408f159f2cf"},{"reference":"Coverage/4bc0ab42-5c4d-4de0-9629-e93dfc194e1f"},{"reference":"Practitioner/a0263ec4-cfd3-46dc-a09e-604cbef4a3f0"}]},"request":{"method":"PUT","url":"MeasureReport/fbffa949-179e-4bd7-8be9-6f5ea9adcf4c"}}]}