{"resourceType":"Bundle","id":"tests-ba657e72-464b-4413-9e67-acdd38cfe68f-bundle","type":"transaction","entry":[{"fullUrl":"https://madie.cms.gov/Patient/ba657e72-464b-4413-9e67-acdd38cfe68f","resource":{"resourceType":"Patient","id":"ba657e72-464b-4413-9e67-acdd38cfe68f","meta":{"profile":["http://hl7.org/fhir/us/qicore/StructureDefinition/qicore-patient"]},"text":{"status":"generated","div":"<div xmlns=\"http://www.w3.org/1999/xhtml\"><div class=\"hapiHeaderText\">NoResult <b>SODIUMFAIL </b></div><table class=\"hapiPropertyTable\"><tbody><tr><td>Identifier</td><td>eb360e3679224871964d5b3575a59ceb3c2f6260372fb1be3ea61ac84d2937cf</td></tr><tr><td>Date of birth</td><td><span>15 June 1956</span></td></tr></tbody></table></div>"},"extension":[{"url":"http://hl7.org/fhir/us/core/StructureDefinition/us-core-race","extension":[{"url":"ombCategory","valueCoding":{"system":"urn:oid:2.16.840.1.113883.6.238","code":"1002-5","display":"American Indian or Alaska Native","userSelected":true}},{"url":"text","valueString":"American Indian or Alaska Native"}]},{"url":"http://hl7.org/fhir/us/core/StructureDefinition/us-core-ethnicity","extension":[{"url":"ombCategory","valueCoding":{"system":"urn:oid:2.16.840.1.113883.6.238","code":"2186-5","display":"Not Hispanic or Latino","userSelected":true}},{"url":"text","valueString":"Not Hispanic or Latino"}]},{"url":"http://hl7.org/fhir/us/core/StructureDefinition/us-core-sex","valueCode":"248153007"}],"identifier":[{"type":{"coding":[{"system":"http://terminology.hl7.org/CodeSystem/v2-0203","code":"MR"}]},"system":"https://bonnie-fhir.healthit.gov/","value":"63ec096bccb3770120fea0ad"}],"active":true,"name":[{"use":"usual","family":"OxygenSatPass","given":["OxygenAdminProcDuringEDEncounter"]}],"gender":"male","birthDate":"1941-07-01"},"request":{"method":"PUT","url":"Patient/ba657e72-464b-4413-9e67-acdd38cfe68f"}},{"fullUrl":"https://madie.cms.gov/Encounter/c473c64a-6ae3-49a7-b180-9be87219c382","resource":{"resourceType":"Encounter","id":"c473c64a-6ae3-49a7-b180-9be87219c382","meta":{"profile":["http://hl7.org/fhir/us/qicore/StructureDefinition/qicore-encounter"]},"status":"finished","class":{"system":"http://terminology.hl7.org/CodeSystem/v3-ActCode","code":"EMR","display":"emergency","userSelected":true},"type":[{"coding":[{"system":"http://snomed.info/sct","code":"4525004","display":"Emergency department patient visit (procedure)"}]}],"subject":{"reference":"Patient/ba657e72-464b-4413-9e67-acdd38cfe68f"},"period":{"start":"2026-07-01T12:01:00.000+00:00","end":"2026-07-04T08:15:00.000+00:00"}},"request":{"method":"PUT","url":"Encounter/c473c64a-6ae3-49a7-b180-9be87219c382"}},{"fullUrl":"https://madie.cms.gov/Encounter/8a1bc21f-4b96-4556-ad10-3f37bf42521d","resource":{"resourceType":"Encounter","id":"8a1bc21f-4b96-4556-ad10-3f37bf42521d","meta":{"profile":["http://hl7.org/fhir/us/qicore/StructureDefinition/qicore-encounter"]},"status":"finished","class":{"system":"http://terminology.hl7.org/CodeSystem/v3-ActCode","code":"IMP","display":"inpatient encounter","userSelected":true},"type":[{"coding":[{"system":"http://snomed.info/sct","code":"183452005"}]}],"subject":{"reference":"Patient/ba657e72-464b-4413-9e67-acdd38cfe68f"},"period":{"start":"2026-07-04T08:15:00.000+00:00","end":"2026-07-05T11:15:00.000+00:00"}},"request":{"method":"PUT","url":"Encounter/8a1bc21f-4b96-4556-ad10-3f37bf42521d"}},{"fullUrl":"https://madie.cms.gov/Procedure/f02e9e12-245a-4617-a51c-a24723577c44","resource":{"resourceType":"Procedure","id":"f02e9e12-245a-4617-a51c-a24723577c44","meta":{"profile":["http://hl7.org/fhir/us/qicore/StructureDefinition/qicore-procedure"]},"extension":[{"url":"http://hl7.org/fhir/us/qicore/StructureDefinition/qicore-recorded","valueDateTime":"2026-07-01T16:01:00.000+00:00"}],"status":"completed","code":{"coding":[{"system":"http://snomed.info/sct","code":"243136002"}]},"subject":{"reference":"Patient/219e4637-9ca3-449d-acf2-b8f387ccb7f5"},"performedPeriod":{"start":"2026-07-05T08:01:00.000+00:00"}},"request":{"method":"PUT","url":"Procedure/f02e9e12-245a-4617-a51c-a24723577c44"}},{"fullUrl":"https://madie.cms.gov/Coverage/1aa60dec-98c0-4898-b856-c26376c73b0f","resource":{"resourceType":"Coverage","id":"1aa60dec-98c0-4898-b856-c26376c73b0f","meta":{"profile":["http://hl7.org/fhir/us/qicore/StructureDefinition/qicore-coverage"]},"status":"active","type":{"coding":[{"system":"https://nahdo.org/sopt","version":"1.0.1","code":"1","display":"MEDICARE","userSelected":true}]},"subscriberId":"AB9876","beneficiary":{"reference":"Patient/ba657e72-464b-4413-9e67-acdd38cfe68f"},"relationship":{"coding":[{"system":"http://terminology.hl7.org/CodeSystem/subscriber-relationship","code":"self"}]},"payor":[{"reference":"Organization/123456"}]},"request":{"method":"PUT","url":"Coverage/1aa60dec-98c0-4898-b856-c26376c73b0f"}},{"fullUrl":"https://madie.cms.gov/Practitioner/4d03d044-c11a-4a00-8f34-6d78bc79537b","resource":{"resourceType":"Practitioner","id":"4d03d044-c11a-4a00-8f34-6d78bc79537b","meta":{"profile":["http://hl7.org/fhir/us/qicore/StructureDefinition/qicore-practitioner"]},"identifier":[{"system":"http://hl7.org/fhir/sid/us-npi","value":"0723660813"}],"name":[{"family":"Evil","prefix":["Dr"]}]},"request":{"method":"PUT","url":"Practitioner/4d03d044-c11a-4a00-8f34-6d78bc79537b"}},{"fullUrl":"https://madie.cms.gov/MeasureReport/363f29ab-389c-42d8-a21e-c0e3acf6fae7","resource":{"resourceType":"MeasureReport","id":"363f29ab-389c-42d8-a21e-c0e3acf6fae7","meta":{"profile":["http://hl7.org/fhir/us/cqfmeasures/StructureDefinition/test-case-cqfm"]},"contained":[{"resourceType":"Parameters","id":"9735f063-272d-4b45-b559-2cde702247a2-parameters","parameter":[{"name":"subject","valueString":"ba657e72-464b-4413-9e67-acdd38cfe68f"}]}],"extension":[{"url":"http://hl7.org/fhir/StructureDefinition/cqf-inputParameters","valueReference":{"reference":"#9735f063-272d-4b45-b559-2cde702247a2-parameters"}},{"url":"http://hl7.org/fhir/us/cqfmeasures/StructureDefinition/cqfm-testCaseDescription","valueMarkdown":"Oxygen procedure after ED encounter, admitted to inpatient"}],"modifierExtension":[{"url":"http://hl7.org/fhir/us/cqfmeasures/StructureDefinition/cqfm-isTestCase","valueBoolean":true}],"status":"complete","type":"individual","measure":"https://madie.cms.gov/Measure/CMSFHIR529HybridHospitalWideReadmission","period":{"start":"2026-07-01","end":"2027-06-30"},"group":[{"id":"Group_1","population":[{"id":"InitialPopulation_1","code":{"coding":[{"system":"http://terminology.hl7.org/CodeSystem/measure-population","code":"initial-population","display":"Initial Population"}]},"count":1}],"measureScore":{"value":0.0}}],"evaluatedResource":[{"reference":"Patient/ba657e72-464b-4413-9e67-acdd38cfe68f"},{"reference":"Encounter/c473c64a-6ae3-49a7-b180-9be87219c382"},{"reference":"Encounter/8a1bc21f-4b96-4556-ad10-3f37bf42521d"},{"reference":"Procedure/f02e9e12-245a-4617-a51c-a24723577c44"},{"reference":"Coverage/1aa60dec-98c0-4898-b856-c26376c73b0f"},{"reference":"Practitioner/4d03d044-c11a-4a00-8f34-6d78bc79537b"}]},"request":{"method":"PUT","url":"MeasureReport/363f29ab-389c-42d8-a21e-c0e3acf6fae7"}}]}