{"resourceType":"Bundle","id":"tests-741acf05-6bdb-4b57-bbcf-ddf478b2e6ef-bundle","type":"transaction","entry":[{"fullUrl":"https://madie.cms.gov/Patient/741acf05-6bdb-4b57-bbcf-ddf478b2e6ef","resource":{"resourceType":"Patient","id":"741acf05-6bdb-4b57-bbcf-ddf478b2e6ef","meta":{"profile":["http://hl7.org/fhir/us/qicore/StructureDefinition/qicore-patient"]},"text":{"status":"generated","div":"<div xmlns=\"http://www.w3.org/1999/xhtml\"><div class=\"hapiHeaderText\">NoResult <b>SODIUMFAIL </b></div><table class=\"hapiPropertyTable\"><tbody><tr><td>Identifier</td><td>eb360e3679224871964d5b3575a59ceb3c2f6260372fb1be3ea61ac84d2937cf</td></tr><tr><td>Date of birth</td><td><span>15 June 1956</span></td></tr></tbody></table></div>"},"extension":[{"url":"http://hl7.org/fhir/us/core/StructureDefinition/us-core-race","extension":[{"url":"ombCategory","valueCoding":{"system":"urn:oid:2.16.840.1.113883.6.238","code":"1002-5","display":"American Indian or Alaska Native","userSelected":true}},{"url":"text","valueString":"American Indian or Alaska Native"}]},{"url":"http://hl7.org/fhir/us/core/StructureDefinition/us-core-ethnicity","extension":[{"url":"ombCategory","valueCoding":{"system":"urn:oid:2.16.840.1.113883.6.238","code":"2186-5","display":"Not Hispanic or Latino","userSelected":true}},{"url":"text","valueString":"Not Hispanic or Latino"}]},{"url":"http://hl7.org/fhir/us/core/StructureDefinition/us-core-sex","valueCode":"248153007"}],"identifier":[{"type":{"coding":[{"system":"http://terminology.hl7.org/CodeSystem/v2-0203","code":"MR"}]},"system":"https://bonnie-fhir.healthit.gov/","value":"63ec096bccb3770120fea0ad"}],"active":true,"name":[{"use":"usual","family":"OxygenAdminPass","given":["OxygenAdminProcStartsBeforeED"]}],"gender":"male","birthDate":"1941-07-01"},"request":{"method":"PUT","url":"Patient/741acf05-6bdb-4b57-bbcf-ddf478b2e6ef"}},{"fullUrl":"https://madie.cms.gov/Encounter/a115c6b0-a3de-49c0-a094-b4300f1bdb0d","resource":{"resourceType":"Encounter","id":"a115c6b0-a3de-49c0-a094-b4300f1bdb0d","meta":{"profile":["http://hl7.org/fhir/us/qicore/StructureDefinition/qicore-encounter"]},"status":"finished","class":{"system":"http://terminology.hl7.org/CodeSystem/v3-ActCode","code":"EMR","display":"emergency","userSelected":true},"type":[{"coding":[{"system":"http://snomed.info/sct","code":"4525004","display":"Emergency department patient visit (procedure)"}]}],"subject":{"reference":"Patient/741acf05-6bdb-4b57-bbcf-ddf478b2e6ef"},"period":{"start":"2026-07-01T12:01:00.000+00:00","end":"2026-07-01T14:15:00.000+00:00"}},"request":{"method":"PUT","url":"Encounter/a115c6b0-a3de-49c0-a094-b4300f1bdb0d"}},{"fullUrl":"https://madie.cms.gov/Encounter/7702968d-c311-415b-89df-5435dde48198","resource":{"resourceType":"Encounter","id":"7702968d-c311-415b-89df-5435dde48198","meta":{"profile":["http://hl7.org/fhir/us/qicore/StructureDefinition/qicore-encounter"]},"status":"finished","class":{"system":"http://terminology.hl7.org/CodeSystem/v3-ActCode","code":"IMP","display":"inpatient encounter","userSelected":true},"type":[{"coding":[{"system":"http://snomed.info/sct","code":"183452005"}]}],"subject":{"reference":"Patient/741acf05-6bdb-4b57-bbcf-ddf478b2e6ef"},"period":{"start":"2026-07-01T14:15:00.000+00:00","end":"2026-07-05T11:15:00.000+00:00"}},"request":{"method":"PUT","url":"Encounter/7702968d-c311-415b-89df-5435dde48198"}},{"fullUrl":"https://madie.cms.gov/Procedure/b4a0a00b-231c-44dd-ba33-3244d551d71c","resource":{"resourceType":"Procedure","id":"b4a0a00b-231c-44dd-ba33-3244d551d71c","meta":{"profile":["http://hl7.org/fhir/us/qicore/StructureDefinition/qicore-procedure"]},"extension":[{"url":"http://hl7.org/fhir/us/qicore/StructureDefinition/qicore-recorded","valueDateTime":"2026-07-01T12:01:00.000+00:00"}],"status":"completed","code":{"coding":[{"system":"http://snomed.info/sct","code":"243136002"}]},"subject":{"reference":"Patient/741acf05-6bdb-4b57-bbcf-ddf478b2e6ef"},"performedPeriod":{"start":"2026-07-01T12:01:00.000+00:00"}},"request":{"method":"PUT","url":"Procedure/b4a0a00b-231c-44dd-ba33-3244d551d71c"}},{"fullUrl":"https://madie.cms.gov/Coverage/2f69ee08-88dd-4a86-9ceb-cb680edd5e1b","resource":{"resourceType":"Coverage","id":"2f69ee08-88dd-4a86-9ceb-cb680edd5e1b","meta":{"profile":["http://hl7.org/fhir/us/qicore/StructureDefinition/qicore-coverage"]},"status":"active","type":{"coding":[{"system":"https://nahdo.org/sopt","version":"1.0.1","code":"1","display":"MEDICARE","userSelected":true}]},"subscriberId":"AB9876","beneficiary":{"reference":"Patient/741acf05-6bdb-4b57-bbcf-ddf478b2e6ef"},"relationship":{"coding":[{"system":"http://terminology.hl7.org/CodeSystem/subscriber-relationship","code":"self"}]},"payor":[{"reference":"Organization/123456"}]},"request":{"method":"PUT","url":"Coverage/2f69ee08-88dd-4a86-9ceb-cb680edd5e1b"}},{"fullUrl":"https://madie.cms.gov/Practitioner/5b70da4a-0de0-4732-af9e-f3cf4aa0b7e6","resource":{"resourceType":"Practitioner","id":"5b70da4a-0de0-4732-af9e-f3cf4aa0b7e6","meta":{"profile":["http://hl7.org/fhir/us/qicore/StructureDefinition/qicore-practitioner"]},"identifier":[{"system":"http://hl7.org/fhir/sid/us-npi","value":"0723660813"}],"name":[{"family":"Evil","prefix":["Dr"]}]},"request":{"method":"PUT","url":"Practitioner/5b70da4a-0de0-4732-af9e-f3cf4aa0b7e6"}},{"fullUrl":"https://madie.cms.gov/MeasureReport/7e566ffc-fcec-4bf5-b7c5-a30e5f96d759","resource":{"resourceType":"MeasureReport","id":"7e566ffc-fcec-4bf5-b7c5-a30e5f96d759","meta":{"profile":["http://hl7.org/fhir/us/cqfmeasures/StructureDefinition/test-case-cqfm"]},"contained":[{"resourceType":"Parameters","id":"75357d82-ce65-4af5-81ff-8e73fcffb820-parameters","parameter":[{"name":"subject","valueString":"741acf05-6bdb-4b57-bbcf-ddf478b2e6ef"}]}],"extension":[{"url":"http://hl7.org/fhir/StructureDefinition/cqf-inputParameters","valueReference":{"reference":"#75357d82-ce65-4af5-81ff-8e73fcffb820-parameters"}},{"url":"http://hl7.org/fhir/us/cqfmeasures/StructureDefinition/cqfm-testCaseDescription","valueMarkdown":"Oxygen procedure interval begins on arrival to ED, admitted to inpatient.  "}],"modifierExtension":[{"url":"http://hl7.org/fhir/us/cqfmeasures/StructureDefinition/cqfm-isTestCase","valueBoolean":true}],"status":"complete","type":"individual","measure":"https://madie.cms.gov/Measure/CMSFHIR529HybridHospitalWideReadmission","period":{"start":"2026-07-01","end":"2027-06-30"},"group":[{"id":"Group_1","population":[{"id":"InitialPopulation_1","code":{"coding":[{"system":"http://terminology.hl7.org/CodeSystem/measure-population","code":"initial-population","display":"Initial Population"}]},"count":1}],"measureScore":{"value":0.0}}],"evaluatedResource":[{"reference":"Patient/741acf05-6bdb-4b57-bbcf-ddf478b2e6ef"},{"reference":"Encounter/a115c6b0-a3de-49c0-a094-b4300f1bdb0d"},{"reference":"Encounter/7702968d-c311-415b-89df-5435dde48198"},{"reference":"Procedure/b4a0a00b-231c-44dd-ba33-3244d551d71c"},{"reference":"Coverage/2f69ee08-88dd-4a86-9ceb-cb680edd5e1b"},{"reference":"Practitioner/5b70da4a-0de0-4732-af9e-f3cf4aa0b7e6"}]},"request":{"method":"PUT","url":"MeasureReport/7e566ffc-fcec-4bf5-b7c5-a30e5f96d759"}}]}