{"resourceType":"Bundle","id":"tests-4d5283cb-bb6d-4cfa-add9-1136a9b650ba-bundle","type":"transaction","entry":[{"fullUrl":"https://madie.cms.gov/Patient/4d5283cb-bb6d-4cfa-add9-1136a9b650ba","resource":{"resourceType":"Patient","id":"4d5283cb-bb6d-4cfa-add9-1136a9b650ba","meta":{"profile":["http://hl7.org/fhir/us/qicore/StructureDefinition/qicore-patient"]},"text":{"status":"generated","div":"<div xmlns=\"http://www.w3.org/1999/xhtml\"><div class=\"hapiHeaderText\">NoResult <b>SODIUMFAIL </b></div><table class=\"hapiPropertyTable\"><tbody><tr><td>Identifier</td><td>eb360e3679224871964d5b3575a59ceb3c2f6260372fb1be3ea61ac84d2937cf</td></tr><tr><td>Date of birth</td><td><span>15 June 1956</span></td></tr></tbody></table></div>"},"extension":[{"url":"http://hl7.org/fhir/us/core/StructureDefinition/us-core-race","extension":[{"url":"ombCategory","valueCoding":{"system":"urn:oid:2.16.840.1.113883.6.238","code":"1002-5","display":"American Indian or Alaska Native","userSelected":true}},{"url":"text","valueString":"American Indian or Alaska Native"}]},{"url":"http://hl7.org/fhir/us/core/StructureDefinition/us-core-ethnicity","extension":[{"url":"ombCategory","valueCoding":{"system":"urn:oid:2.16.840.1.113883.6.238","code":"2186-5","display":"Not Hispanic or Latino","userSelected":true}},{"url":"text","valueString":"Not Hispanic or Latino"}]},{"url":"http://hl7.org/fhir/us/core/StructureDefinition/us-core-sex","valueCode":"248153007"}],"identifier":[{"type":{"coding":[{"system":"http://terminology.hl7.org/CodeSystem/v2-0203","code":"MR"}]},"system":"https://bonnie-fhir.healthit.gov/","value":"63ec096bccb3770120fea0ad"}],"active":true,"name":[{"use":"usual","family":"OxygenAdminPass","given":["OxygenOrderStartsOnArrivalToED"]}],"gender":"male","birthDate":"1941-07-01"},"request":{"method":"PUT","url":"Patient/4d5283cb-bb6d-4cfa-add9-1136a9b650ba"}},{"fullUrl":"https://madie.cms.gov/Encounter/6c8849f2-4c98-474c-9777-52499eec063b","resource":{"resourceType":"Encounter","id":"6c8849f2-4c98-474c-9777-52499eec063b","meta":{"profile":["http://hl7.org/fhir/us/qicore/StructureDefinition/qicore-encounter"]},"status":"finished","class":{"system":"http://terminology.hl7.org/CodeSystem/v3-ActCode","code":"EMR","display":"emergency","userSelected":true},"type":[{"coding":[{"system":"http://snomed.info/sct","code":"4525004","display":"Emergency department patient visit (procedure)"}]}],"subject":{"reference":"Patient/4d5283cb-bb6d-4cfa-add9-1136a9b650ba"},"period":{"start":"2026-07-01T12:01:00.000+00:00","end":"2026-07-01T14:15:00.000+00:00"}},"request":{"method":"PUT","url":"Encounter/6c8849f2-4c98-474c-9777-52499eec063b"}},{"fullUrl":"https://madie.cms.gov/Encounter/2869354e-3345-4bae-8039-695f6708b774","resource":{"resourceType":"Encounter","id":"2869354e-3345-4bae-8039-695f6708b774","meta":{"profile":["http://hl7.org/fhir/us/qicore/StructureDefinition/qicore-encounter"]},"status":"finished","class":{"system":"http://terminology.hl7.org/CodeSystem/v3-ActCode","code":"IMP","display":"inpatient encounter","userSelected":true},"type":[{"coding":[{"system":"http://snomed.info/sct","code":"183452005"}]}],"subject":{"reference":"Patient/4d5283cb-bb6d-4cfa-add9-1136a9b650ba"},"period":{"start":"2026-07-01T14:15:00.000+00:00","end":"2026-07-05T11:15:00.000+00:00"}},"request":{"method":"PUT","url":"Encounter/2869354e-3345-4bae-8039-695f6708b774"}},{"fullUrl":"https://madie.cms.gov/ServiceRequest/7327dbc0-f15c-4808-a4ae-32308381b89f","resource":{"resourceType":"ServiceRequest","id":"7327dbc0-f15c-4808-a4ae-32308381b89f","meta":{"profile":["http://hl7.org/fhir/us/qicore/StructureDefinition/qicore-servicerequest"]},"status":"active","intent":"order","code":{"coding":[{"system":"http://snomed.info/sct","version":"2024-09","code":"371908008","display":"Oxygen administration by mask (procedure)","userSelected":true}]},"subject":{"reference":"Patient/4d5283cb-bb6d-4cfa-add9-1136a9b650ba"},"authoredOn":"2026-07-01T12:01:00.000+00:00"},"request":{"method":"PUT","url":"ServiceRequest/7327dbc0-f15c-4808-a4ae-32308381b89f"}},{"fullUrl":"https://madie.cms.gov/Coverage/5ada8e1e-60a5-4cd9-98e7-a1ac3ef0de70","resource":{"resourceType":"Coverage","id":"5ada8e1e-60a5-4cd9-98e7-a1ac3ef0de70","meta":{"profile":["http://hl7.org/fhir/us/qicore/StructureDefinition/qicore-coverage"]},"status":"active","type":{"coding":[{"system":"https://nahdo.org/sopt","version":"1.0.1","code":"1","display":"MEDICARE","userSelected":true}]},"subscriberId":"AB9876","beneficiary":{"reference":"Patient/4d5283cb-bb6d-4cfa-add9-1136a9b650ba"},"relationship":{"coding":[{"system":"http://terminology.hl7.org/CodeSystem/subscriber-relationship","code":"self"}]},"payor":[{"reference":"Organization/123456"}]},"request":{"method":"PUT","url":"Coverage/5ada8e1e-60a5-4cd9-98e7-a1ac3ef0de70"}},{"fullUrl":"https://madie.cms.gov/Practitioner/c5ce1f84-0dd8-40cb-a2c7-ac6611469cdf","resource":{"resourceType":"Practitioner","id":"c5ce1f84-0dd8-40cb-a2c7-ac6611469cdf","meta":{"profile":["http://hl7.org/fhir/us/qicore/StructureDefinition/qicore-practitioner"]},"identifier":[{"system":"http://hl7.org/fhir/sid/us-npi","value":"0723660813"}],"name":[{"family":"Evil","prefix":["Dr"]}]},"request":{"method":"PUT","url":"Practitioner/c5ce1f84-0dd8-40cb-a2c7-ac6611469cdf"}},{"fullUrl":"https://madie.cms.gov/MeasureReport/75523815-37ac-46c2-955d-1e58ab797521","resource":{"resourceType":"MeasureReport","id":"75523815-37ac-46c2-955d-1e58ab797521","meta":{"profile":["http://hl7.org/fhir/us/cqfmeasures/StructureDefinition/test-case-cqfm"]},"contained":[{"resourceType":"Parameters","id":"e7d9e3b7-399f-414a-bfdf-5993034cbcfe-parameters","parameter":[{"name":"subject","valueString":"4d5283cb-bb6d-4cfa-add9-1136a9b650ba"}]}],"extension":[{"url":"http://hl7.org/fhir/StructureDefinition/cqf-inputParameters","valueReference":{"reference":"#e7d9e3b7-399f-414a-bfdf-5993034cbcfe-parameters"}},{"url":"http://hl7.org/fhir/us/cqfmeasures/StructureDefinition/cqfm-testCaseDescription","valueMarkdown":"Oxygen order on arrival to ED, admitted to inpatient."}],"modifierExtension":[{"url":"http://hl7.org/fhir/us/cqfmeasures/StructureDefinition/cqfm-isTestCase","valueBoolean":true}],"status":"complete","type":"individual","measure":"https://madie.cms.gov/Measure/CMSFHIR529HybridHospitalWideReadmission","period":{"start":"2026-07-01","end":"2027-06-30"},"group":[{"id":"Group_1","population":[{"id":"InitialPopulation_1","code":{"coding":[{"system":"http://terminology.hl7.org/CodeSystem/measure-population","code":"initial-population","display":"Initial Population"}]},"count":1}],"measureScore":{"value":0.0}}],"evaluatedResource":[{"reference":"Patient/4d5283cb-bb6d-4cfa-add9-1136a9b650ba"},{"reference":"Encounter/6c8849f2-4c98-474c-9777-52499eec063b"},{"reference":"Encounter/2869354e-3345-4bae-8039-695f6708b774"},{"reference":"ServiceRequest/7327dbc0-f15c-4808-a4ae-32308381b89f"},{"reference":"Coverage/5ada8e1e-60a5-4cd9-98e7-a1ac3ef0de70"},{"reference":"Practitioner/c5ce1f84-0dd8-40cb-a2c7-ac6611469cdf"}]},"request":{"method":"PUT","url":"MeasureReport/75523815-37ac-46c2-955d-1e58ab797521"}}]}