{
  "resourceType": "Bundle",
  "id": "63ec09a2ccb3770120fea7ad",
  "type": "transaction",
  "entry": [ {
    "fullUrl": "https://madie.cms.gov/Patient/26c1293c-5e9b-494f-a5a2-7f71cff6348d",
    "resource": {
      "resourceType": "Patient",
      "id": "26c1293c-5e9b-494f-a5a2-7f71cff6348d",
      "meta": {
        "profile": [ "http://hl7.org/fhir/us/qicore/StructureDefinition/qicore-patient" ]
      },
      "text": {
        "status": "generated",
        "div": "<div xmlns=\"http://www.w3.org/1999/xhtml\"><div class=\"hapiHeaderText\">LT24after <b>GLUCPASS </b></div><table class=\"hapiPropertyTable\"><tbody><tr><td>Identifier</td><td>d41d39d967f0e01059a7fb71f0c56412779552491c949eb744578b16580c9adb</td></tr><tr><td>Date of birth</td><td><span>21 June 1947</span></td></tr></tbody></table></div>"
      },
      "extension": [ {
        "url": "http://hl7.org/fhir/us/core/StructureDefinition/us-core-race",
        "extension": [ {
          "url": "ombCategory",
          "valueCoding": {
            "system": "urn:oid:2.16.840.1.113883.6.238",
            "code": "2054-5",
            "display": "Black or African American",
            "userSelected": true
          }
        }, {
          "url": "text",
          "valueString": "Black or African American"
        } ]
      }, {
        "url": "http://hl7.org/fhir/us/core/StructureDefinition/us-core-ethnicity",
        "extension": [ {
          "url": "ombCategory",
          "valueCoding": {
            "system": "urn:oid:2.16.840.1.113883.6.238",
            "code": "2186-5",
            "display": "Not Hispanic or Latino",
            "userSelected": true
          }
        }, {
          "url": "text",
          "valueString": "Not Hispanic or Latino"
        } ]
      }, {
        "url": "http://hl7.org/fhir/us/core/StructureDefinition/us-core-sex",
        "valueCode": "248153007"
      } ],
      "identifier": [ {
        "type": {
          "coding": [ {
            "system": "http://terminology.hl7.org/CodeSystem/v2-0203",
            "code": "MR"
          } ]
        },
        "system": "https://bonnie-fhir.healthit.gov/",
        "value": "63ec09a2ccb3770120fea7ad"
      } ],
      "active": true,
      "name": [ {
        "use": "usual",
        "family": "GlucoseFail",
        "given": [ "Glucose1MinBeforeAdmission" ]
      } ],
      "gender": "male",
      "birthDate": "1948-06-21"
    },
    "request": {
      "method": "PUT",
      "url": "Patient/26c1293c-5e9b-494f-a5a2-7f71cff6348d"
    }
  }, {
    "fullUrl": "https://madie.cms.gov/Encounter/79a60b9e-7fbf-48f1-9921-2794e064b78a",
    "resource": {
      "resourceType": "Encounter",
      "id": "79a60b9e-7fbf-48f1-9921-2794e064b78a",
      "meta": {
        "profile": [ "http://hl7.org/fhir/us/qicore/StructureDefinition/qicore-encounter" ]
      },
      "status": "finished",
      "class": {
        "system": "http://terminology.hl7.org/CodeSystem/v3-ActCode",
        "code": "OBSENC",
        "display": "observation encounter",
        "userSelected": true
      },
      "type": [ {
        "coding": [ {
          "system": "http://snomed.info/sct",
          "code": "183452005"
        } ]
      } ],
      "subject": {
        "reference": "Patient/26c1293c-5e9b-494f-a5a2-7f71cff6348d"
      },
      "period": {
        "start": "2026-08-21T08:00:00.000+00:00",
        "end": "2026-08-22T08:15:00.000+00:00"
      }
    },
    "request": {
      "method": "PUT",
      "url": "Encounter/79a60b9e-7fbf-48f1-9921-2794e064b78a"
    }
  }, {
    "fullUrl": "https://madie.cms.gov/Coverage/d8557c1a-2946-4049-bdf9-669ca32761c7",
    "resource": {
      "resourceType": "Coverage",
      "id": "d8557c1a-2946-4049-bdf9-669ca32761c7",
      "meta": {
        "profile": [ "http://hl7.org/fhir/us/qicore/StructureDefinition/qicore-coverage" ]
      },
      "status": "active",
      "type": {
        "coding": [ {
          "system": "https://nahdo.org/sopt",
          "version": "1.0.1",
          "code": "1",
          "display": "MEDICARE",
          "userSelected": true
        } ]
      },
      "subscriberId": "AB9876",
      "beneficiary": {
        "reference": "Patient/26c1293c-5e9b-494f-a5a2-7f71cff6348d"
      },
      "relationship": {
        "coding": [ {
          "system": "http://terminology.hl7.org/CodeSystem/subscriber-relationship",
          "code": "self"
        } ]
      },
      "payor": [ {
        "reference": "Organization/56b02b5b-9a0e-4c50-8620-abc5b6e7ba17"
      } ]
    },
    "request": {
      "method": "PUT",
      "url": "Coverage/d8557c1a-2946-4049-bdf9-669ca32761c7"
    }
  }, {
    "fullUrl": "https://madie.cms.gov/Observation/85bfe89a-0bf9-4150-b0f9-0f27465cce2a",
    "resource": {
      "resourceType": "Observation",
      "id": "85bfe89a-0bf9-4150-b0f9-0f27465cce2a",
      "meta": {
        "profile": [ "http://hl7.org/fhir/us/qicore/StructureDefinition/qicore-observation-lab" ]
      },
      "status": "final",
      "category": [ {
        "coding": [ {
          "system": "http://terminology.hl7.org/CodeSystem/observation-category",
          "code": "laboratory",
          "display": "Laboratory",
          "userSelected": true
        } ]
      } ],
      "code": {
        "coding": [ {
          "system": "http://loinc.org",
          "version": "2.72",
          "code": "15074-8",
          "display": "Glucose [Moles/volume] in Blood"
        } ]
      },
      "subject": {
        "reference": "Patient/26c1293c-5e9b-494f-a5a2-7f71cff6348d"
      },
      "effectiveDateTime": "2026-08-21T07:59:00.000+00:00",
      "issued": "2026-08-21T07:59:00.000+00:00",
      "performer": [ {
        "reference": "Organization/Organization-1"
      } ],
      "valueQuantity": {
        "value": 95,
        "unit": "mg/dL",
        "system": "http://unitsofmeasure.org",
        "code": "mg/dL"
      }
    },
    "request": {
      "method": "PUT",
      "url": "Observation/85bfe89a-0bf9-4150-b0f9-0f27465cce2a"
    }
  }, {
    "fullUrl": "https://madie.cms.gov/Organization/56b02b5b-9a0e-4c50-8620-abc5b6e7ba17",
    "resource": {
      "resourceType": "Organization",
      "id": "56b02b5b-9a0e-4c50-8620-abc5b6e7ba17",
      "meta": {
        "profile": [ "http://hl7.org/fhir/us/qicore/StructureDefinition/qicore-organization" ]
      },
      "identifier": [ {
        "use": "temp",
        "system": "urn:oid:2.16.840.1.113883.4.4",
        "value": "21-3259825"
      } ],
      "active": true,
      "type": [ {
        "coding": [ {
          "system": "http://terminology.hl7.org/CodeSystem/organization-type",
          "code": "pay",
          "display": "Payer"
        } ]
      } ],
      "name": "Blue Cross Blue Shield of Texas",
      "telecom": [ {
        "system": "phone",
        "value": "(+1) 972-766-6900"
      } ],
      "address": [ {
        "use": "billing",
        "type": "postal",
        "line": [ "P.O. Box 660044" ],
        "city": "Dallas",
        "state": "TX",
        "postalCode": "75266-0044",
        "country": "USA"
      } ]
    },
    "request": {
      "method": "PUT",
      "url": "Organization/56b02b5b-9a0e-4c50-8620-abc5b6e7ba17"
    }
  }, {
    "fullUrl": "https://madie.cms.gov/Practitioner/0930bba5-3f5a-4e9c-92fa-65f535c1ffca",
    "resource": {
      "resourceType": "Practitioner",
      "id": "0930bba5-3f5a-4e9c-92fa-65f535c1ffca",
      "meta": {
        "profile": [ "http://hl7.org/fhir/us/qicore/StructureDefinition/qicore-practitioner" ]
      },
      "identifier": [ {
        "system": "http://hl7.org/fhir/sid/us-npi",
        "value": "0723660813"
      } ],
      "name": [ {
        "family": "Evil",
        "prefix": [ "Dr" ]
      } ]
    },
    "request": {
      "method": "PUT",
      "url": "Practitioner/0930bba5-3f5a-4e9c-92fa-65f535c1ffca"
    }
  }, {
    "fullUrl": "https://madie.cms.gov/MeasureReport/0d1b9408-04ba-45a0-b928-bda25614288a",
    "resource": {
      "resourceType": "MeasureReport",
      "id": "0d1b9408-04ba-45a0-b928-bda25614288a",
      "meta": {
        "profile": [ "http://hl7.org/fhir/us/cqfmeasures/StructureDefinition/test-case-cqfm" ]
      },
      "contained": [ {
        "resourceType": "Parameters",
        "id": "1ae110ef-64a2-4bd2-b919-8f3bfa05963b-parameters",
        "parameter": [ {
          "name": "subject",
          "valueString": "26c1293c-5e9b-494f-a5a2-7f71cff6348d"
        } ]
      } ],
      "extension": [ {
        "url": "http://hl7.org/fhir/StructureDefinition/cqf-inputParameters",
        "valueReference": {
          "reference": "#1ae110ef-64a2-4bd2-b919-8f3bfa05963b-parameters"
        }
      }, {
        "url": "http://hl7.org/fhir/us/cqfmeasures/StructureDefinition/cqfm-testCaseDescription",
        "valueMarkdown": "Glucose lab test results occurred 1min before start of encounter period. \n"
      } ],
      "modifierExtension": [ {
        "url": "http://hl7.org/fhir/us/cqfmeasures/StructureDefinition/cqfm-isTestCase",
        "valueBoolean": true
      } ],
      "status": "complete",
      "type": "individual",
      "measure": "https://madie.cms.gov/Measure/CMSFHIR529HybridHospitalWideReadmission",
      "period": {
        "start": "2026-07-01",
        "end": "2027-06-30"
      },
      "group": [ {
        "id": "Group_1",
        "population": [ {
          "id": "InitialPopulation_1",
          "code": {
            "coding": [ {
              "system": "http://terminology.hl7.org/CodeSystem/measure-population",
              "code": "initial-population",
              "display": "Initial Population"
            } ]
          },
          "count": 1
        } ],
        "measureScore": {
          "value": 0.0
        }
      } ],
      "evaluatedResource": [ {
        "reference": "Patient/26c1293c-5e9b-494f-a5a2-7f71cff6348d"
      }, {
        "reference": "Encounter/79a60b9e-7fbf-48f1-9921-2794e064b78a"
      }, {
        "reference": "Coverage/d8557c1a-2946-4049-bdf9-669ca32761c7"
      }, {
        "reference": "Observation/85bfe89a-0bf9-4150-b0f9-0f27465cce2a"
      }, {
        "reference": "Organization/56b02b5b-9a0e-4c50-8620-abc5b6e7ba17"
      }, {
        "reference": "Practitioner/0930bba5-3f5a-4e9c-92fa-65f535c1ffca"
      } ]
    },
    "request": {
      "method": "PUT",
      "url": "MeasureReport/0d1b9408-04ba-45a0-b928-bda25614288a"
    }
  } ]
}