{
  "resourceType": "Bundle",
  "id": "2Encounters1FallWithInjury",
  "type": "transaction",
  "entry": [ {
    "fullUrl": "https://madie.cms.gov/Claim/93b333d3-a843-45a6-9a1f-3e9c731b13ed",
    "resource": {
      "resourceType": "Claim",
      "id": "93b333d3-a843-45a6-9a1f-3e9c731b13ed",
      "meta": {
        "profile": [ "http://hl7.org/fhir/us/qicore/StructureDefinition/qicore-claim" ]
      },
      "status": "active",
      "type": {
        "coding": [ {
          "system": "http://terminology.hl7.org/CodeSystem/claim-type",
          "code": "professional",
          "display": "Professional"
        } ]
      },
      "use": "claim",
      "patient": {
        "reference": "Patient/7c4f1e55-2462-45e5-9062-5cf8d04b40e2"
      },
      "created": "2026-12-12",
      "provider": {
        "reference": "Practitioner/272b1b23-6144-40c5-aba8-6279ba11bd5b"
      },
      "priority": {
        "coding": [ {
          "system": "http://terminology.hl7.org/CodeSystem/processpriority",
          "code": "normal"
        } ]
      },
      "diagnosis": [ {
        "sequence": 1,
        "diagnosisCodeableConcept": {
          "coding": [ {
            "system": "http://hl7.org/fhir/sid/icd-10-cm",
            "code": "W01.0XXA"
          } ]
        },
        "onAdmission": {
          "coding": [ {
            "system": "https://www.cms.gov/Medicare/Medicare-Fee-for-Service-Payment/HospitalAcqCond/Coding",
            "code": "N"
          } ]
        }
      } ],
      "insurance": [ {
        "sequence": 1,
        "focal": true,
        "coverage": {
          "reference": "Coverage/1f7a125e-445a-4341-b839-ac24e074decb"
        }
      } ],
      "item": [ {
        "sequence": 1,
        "diagnosisSequence": [ 1, 2 ],
        "productOrService": {
          "coding": [ {
            "system": "http://terminology.hl7.org/CodeSystem/ex-USCLS",
            "code": "1101"
          } ]
        },
        "encounter": [ {
          "reference": "Encounter/0e416014-f324-4c1e-afba-c418b5307533"
        } ]
      } ]
    },
    "request": {
      "method": "PUT",
      "url": "Claim/93b333d3-a843-45a6-9a1f-3e9c731b13ed"
    }
  }, {
    "fullUrl": "https://madie.cms.gov/Claim/67fd22bb-955f-4944-8a34-919b202bb253",
    "resource": {
      "resourceType": "Claim",
      "id": "67fd22bb-955f-4944-8a34-919b202bb253",
      "meta": {
        "profile": [ "http://hl7.org/fhir/us/qicore/StructureDefinition/qicore-claim" ]
      },
      "status": "active",
      "type": {
        "coding": [ {
          "system": "http://terminology.hl7.org/CodeSystem/claim-type",
          "code": "professional",
          "display": "Professional"
        } ]
      },
      "use": "claim",
      "patient": {
        "reference": "Patient/7c4f1e55-2462-45e5-9062-5cf8d04b40e2"
      },
      "created": "2026-12-12",
      "provider": {
        "reference": "Practitioner/272b1b23-6144-40c5-aba8-6279ba11bd5b"
      },
      "priority": {
        "coding": [ {
          "system": "http://terminology.hl7.org/CodeSystem/processpriority",
          "code": "normal"
        } ]
      },
      "diagnosis": [ {
        "sequence": 2,
        "diagnosisCodeableConcept": {
          "coding": [ {
            "system": "http://hl7.org/fhir/sid/icd-10-cm",
            "code": "S01.309A"
          } ]
        },
        "onAdmission": {
          "coding": [ {
            "system": "https://www.cms.gov/Medicare/Medicare-Fee-for-Service-Payment/HospitalAcqCond/Coding",
            "code": "N"
          } ]
        }
      } ],
      "insurance": [ {
        "sequence": 1,
        "focal": true,
        "coverage": {
          "reference": "Coverage/1f7a125e-445a-4341-b839-ac24e074decb"
        }
      } ],
      "item": [ {
        "sequence": 1,
        "diagnosisSequence": [ 1, 2 ],
        "productOrService": {
          "coding": [ {
            "system": "http://terminology.hl7.org/CodeSystem/ex-USCLS",
            "code": "1101"
          } ]
        },
        "encounter": [ {
          "reference": "Encounter/0e416014-f324-4c1e-afba-c418b5307533"
        } ]
      } ]
    },
    "request": {
      "method": "PUT",
      "url": "Claim/67fd22bb-955f-4944-8a34-919b202bb253"
    }
  }, {
    "fullUrl": "https://madie.cms.gov/Claim/a25e66d1-fd89-43a1-9a4e-1d67a17a8af2",
    "resource": {
      "resourceType": "Claim",
      "id": "a25e66d1-fd89-43a1-9a4e-1d67a17a8af2",
      "meta": {
        "profile": [ "http://hl7.org/fhir/us/qicore/StructureDefinition/qicore-claim" ]
      },
      "status": "active",
      "type": {
        "coding": [ {
          "system": "http://terminology.hl7.org/CodeSystem/claim-type",
          "code": "professional",
          "display": "Professional"
        } ]
      },
      "use": "claim",
      "patient": {
        "reference": "Patient/7c4f1e55-2462-45e5-9062-5cf8d04b40e2"
      },
      "created": "2026-12-12",
      "provider": {
        "reference": "Practitioner/272b1b23-6144-40c5-aba8-6279ba11bd5b"
      },
      "priority": {
        "coding": [ {
          "system": "http://terminology.hl7.org/CodeSystem/processpriority",
          "code": "normal"
        } ]
      },
      "diagnosis": [ {
        "sequence": 1,
        "diagnosisCodeableConcept": {
          "coding": [ {
            "system": "http://snomed.info/sct",
            "code": "14047009"
          } ]
        },
        "onAdmission": {
          "coding": [ {
            "system": "https://www.cms.gov/Medicare/Medicare-Fee-for-Service-Payment/HospitalAcqCond/Coding",
            "code": "N"
          } ]
        }
      } ],
      "insurance": [ {
        "sequence": 1,
        "focal": true,
        "coverage": {
          "reference": "Coverage/1f7a125e-445a-4341-b839-ac24e074decb"
        }
      } ],
      "item": [ {
        "sequence": 1,
        "diagnosisSequence": [ 1, 2 ],
        "productOrService": {
          "coding": [ {
            "system": "http://terminology.hl7.org/CodeSystem/ex-USCLS",
            "code": "1101"
          } ]
        },
        "encounter": [ {
          "reference": "Encounter/938f1c05-5826-4926-aa8f-c9514ba32402"
        } ]
      } ]
    },
    "request": {
      "method": "PUT",
      "url": "Claim/a25e66d1-fd89-43a1-9a4e-1d67a17a8af2"
    }
  }, {
    "fullUrl": "https://madie.cms.gov/Claim/9505b022-f345-4d14-97bf-fab5d29ddefd",
    "resource": {
      "resourceType": "Claim",
      "id": "9505b022-f345-4d14-97bf-fab5d29ddefd",
      "meta": {
        "profile": [ "http://hl7.org/fhir/us/qicore/StructureDefinition/qicore-claim" ]
      },
      "status": "active",
      "type": {
        "coding": [ {
          "system": "http://terminology.hl7.org/CodeSystem/claim-type",
          "code": "professional",
          "display": "Professional"
        } ]
      },
      "use": "claim",
      "patient": {
        "reference": "Patient/7c4f1e55-2462-45e5-9062-5cf8d04b40e2"
      },
      "created": "2026-12-12",
      "provider": {
        "reference": "Practitioner/272b1b23-6144-40c5-aba8-6279ba11bd5b"
      },
      "priority": {
        "coding": [ {
          "system": "http://terminology.hl7.org/CodeSystem/processpriority",
          "code": "normal"
        } ]
      },
      "diagnosis": [ {
        "sequence": 2,
        "diagnosisCodeableConcept": {
          "coding": [ {
            "system": "http://hl7.org/fhir/sid/icd-10-cm",
            "code": "S13.29XA"
          } ]
        },
        "onAdmission": {
          "coding": [ {
            "system": "https://www.cms.gov/Medicare/Medicare-Fee-for-Service-Payment/HospitalAcqCond/Coding",
            "code": "Y"
          } ]
        }
      } ],
      "insurance": [ {
        "sequence": 1,
        "focal": true,
        "coverage": {
          "reference": "Coverage/1f7a125e-445a-4341-b839-ac24e074decb"
        }
      } ],
      "item": [ {
        "sequence": 1,
        "diagnosisSequence": [ 1, 2 ],
        "productOrService": {
          "coding": [ {
            "system": "http://terminology.hl7.org/CodeSystem/ex-USCLS",
            "code": "1101"
          } ]
        },
        "encounter": [ {
          "reference": "Encounter/938f1c05-5826-4926-aa8f-c9514ba32402"
        } ]
      } ]
    },
    "request": {
      "method": "PUT",
      "url": "Claim/9505b022-f345-4d14-97bf-fab5d29ddefd"
    }
  }, {
    "fullUrl": "https://madie.cms.gov/Encounter/938f1c05-5826-4926-aa8f-c9514ba32402",
    "resource": {
      "resourceType": "Encounter",
      "id": "938f1c05-5826-4926-aa8f-c9514ba32402",
      "meta": {
        "profile": [ "http://hl7.org/fhir/us/qicore/StructureDefinition/qicore-encounter" ]
      },
      "status": "finished",
      "class": {
        "system": "http://terminology.hl7.org/CodeSystem/v3-ActCode",
        "code": "IMP",
        "display": "inpatient encounter"
      },
      "type": [ {
        "coding": [ {
          "system": "http://snomed.info/sct",
          "code": "183452005"
        } ]
      } ],
      "subject": {
        "reference": "Patient/7c4f1e55-2462-45e5-9062-5cf8d04b40e2"
      },
      "period": {
        "start": "2026-12-08T08:00:00.000+00:00",
        "end": "2026-12-12T08:15:00.000+00:00"
      },
      "reasonCode": [ {
        "coding": [ {
          "system": "http://snomed.info/sct",
          "code": "14047009"
        } ]
      }, {
        "coding": [ {
          "system": "http://hl7.org/fhir/sid/icd-10-cm",
          "code": "S13.29XA"
        } ]
      } ]
    },
    "request": {
      "method": "PUT",
      "url": "Encounter/938f1c05-5826-4926-aa8f-c9514ba32402"
    }
  }, {
    "fullUrl": "https://madie.cms.gov/Encounter/0e416014-f324-4c1e-afba-c418b5307533",
    "resource": {
      "resourceType": "Encounter",
      "id": "0e416014-f324-4c1e-afba-c418b5307533",
      "meta": {
        "profile": [ "http://hl7.org/fhir/us/qicore/StructureDefinition/qicore-encounter" ]
      },
      "status": "finished",
      "class": {
        "system": "http://terminology.hl7.org/CodeSystem/v3-ActCode",
        "code": "IMP",
        "display": "inpatient encounter"
      },
      "type": [ {
        "coding": [ {
          "system": "http://snomed.info/sct",
          "code": "183452005"
        } ]
      } ],
      "subject": {
        "reference": "Patient/7c4f1e55-2462-45e5-9062-5cf8d04b40e2"
      },
      "period": {
        "start": "2026-11-09T11:00:00.000+00:00",
        "end": "2026-11-12T08:15:00.000+00:00"
      }
    },
    "request": {
      "method": "PUT",
      "url": "Encounter/0e416014-f324-4c1e-afba-c418b5307533"
    }
  }, {
    "fullUrl": "https://madie.cms.gov/Encounter/8d8d4c35-9df6-4994-a265-a77f3f170d3b",
    "resource": {
      "resourceType": "Encounter",
      "id": "8d8d4c35-9df6-4994-a265-a77f3f170d3b",
      "meta": {
        "profile": [ "http://hl7.org/fhir/us/qicore/StructureDefinition/qicore-encounter" ]
      },
      "status": "finished",
      "class": {
        "system": "http://terminology.hl7.org/CodeSystem/v3-ActCode",
        "code": "IMP",
        "display": "inpatient encounter"
      },
      "type": [ {
        "coding": [ {
          "system": "http://snomed.info/sct",
          "code": "4525004"
        } ]
      } ],
      "subject": {
        "reference": "Patient/7c4f1e55-2462-45e5-9062-5cf8d04b40e2"
      },
      "period": {
        "start": "2026-11-09T08:00:00.000+00:00",
        "end": "2026-11-09T10:15:00.000+00:00"
      },
      "reasonCode": [ {
        "coding": [ {
          "system": "http://hl7.org/fhir/sid/icd-10-cm",
          "code": "W01.0XXA"
        } ]
      }, {
        "coding": [ {
          "system": "http://hl7.org/fhir/sid/icd-10-cm",
          "code": "S01.309A"
        } ]
      } ]
    },
    "request": {
      "method": "PUT",
      "url": "Encounter/8d8d4c35-9df6-4994-a265-a77f3f170d3b"
    }
  }, {
    "fullUrl": "https://madie.cms.gov/Patient/7c4f1e55-2462-45e5-9062-5cf8d04b40e2",
    "resource": {
      "resourceType": "Patient",
      "id": "7c4f1e55-2462-45e5-9062-5cf8d04b40e2",
      "meta": {
        "profile": [ "http://hl7.org/fhir/us/qicore/StructureDefinition/qicore-patient" ]
      },
      "extension": [ {
        "url": "http://hl7.org/fhir/us/core/StructureDefinition/us-core-race",
        "extension": [ {
          "url": "ombCategory",
          "valueCoding": {
            "system": "urn:oid:2.16.840.1.113883.6.238",
            "code": "2054-5",
            "display": "Black or African American",
            "userSelected": true
          }
        }, {
          "url": "text",
          "valueString": "Black or African American"
        } ]
      }, {
        "url": "http://hl7.org/fhir/us/core/StructureDefinition/us-core-ethnicity",
        "extension": [ {
          "url": "ombCategory",
          "valueCoding": {
            "system": "urn:oid:2.16.840.1.113883.6.238",
            "code": "2186-5",
            "display": "Not Hispanic or Latino",
            "userSelected": true
          }
        }, {
          "url": "text",
          "valueString": "Not Hispanic or Latino"
        } ]
      } ],
      "identifier": [ {
        "type": {
          "coding": [ {
            "system": "http://terminology.hl7.org/CodeSystem/v2-0203",
            "code": "MR"
          } ]
        },
        "system": "https://bonnie-fhir.healthit.gov/",
        "value": "61152a3b98086b7a79cbd7c1"
      } ],
      "active": true,
      "name": [ {
        "use": "usual",
        "family": "NUMERPass",
        "given": [ "2Encounters1FallWithInjury" ]
      } ],
      "gender": "male",
      "birthDate": "1964-12-11"
    },
    "request": {
      "method": "PUT",
      "url": "Patient/7c4f1e55-2462-45e5-9062-5cf8d04b40e2"
    }
  }, {
    "fullUrl": "https://madie.cms.gov/AdverseEvent/608d8d9b-cc7e-4a28-994e-6dc0de0aeae6",
    "resource": {
      "resourceType": "AdverseEvent",
      "id": "608d8d9b-cc7e-4a28-994e-6dc0de0aeae6",
      "meta": {
        "profile": [ "http://hl7.org/fhir/us/qicore/StructureDefinition/qicore-adverseevent" ]
      },
      "actuality": "actual",
      "event": {
        "coding": [ {
          "system": "http://hl7.org/fhir/sid/icd-10-cm",
          "code": "W01.0XXA"
        } ]
      },
      "subject": {
        "reference": "Patient/7c4f1e55-2462-45e5-9062-5cf8d04b40e2"
      },
      "date": "2026-12-09T08:00:00.000+00:00"
    },
    "request": {
      "method": "PUT",
      "url": "AdverseEvent/608d8d9b-cc7e-4a28-994e-6dc0de0aeae6"
    }
  }, {
    "fullUrl": "https://madie.cms.gov/AdverseEvent/9cbe445a-bc6d-4bc5-8d80-4d4cc87e0aa9",
    "resource": {
      "resourceType": "AdverseEvent",
      "id": "9cbe445a-bc6d-4bc5-8d80-4d4cc87e0aa9",
      "meta": {
        "profile": [ "http://hl7.org/fhir/us/qicore/StructureDefinition/qicore-adverseevent" ]
      },
      "actuality": "actual",
      "event": {
        "coding": [ {
          "system": "http://snomed.info/sct",
          "code": "14047009"
        } ]
      },
      "subject": {
        "reference": "Patient/7c4f1e55-2462-45e5-9062-5cf8d04b40e2"
      },
      "date": "2026-11-10T08:00:00.000+00:00"
    },
    "request": {
      "method": "PUT",
      "url": "AdverseEvent/9cbe445a-bc6d-4bc5-8d80-4d4cc87e0aa9"
    }
  }, {
    "fullUrl": "https://madie.cms.gov/Practitioner/272b1b23-6144-40c5-aba8-6279ba11bd5b",
    "resource": {
      "resourceType": "Practitioner",
      "id": "272b1b23-6144-40c5-aba8-6279ba11bd5b",
      "identifier": [ {
        "system": "http://www.cms.gov/identifiers/pracitioners",
        "value": "P12345"
      } ],
      "name": [ {
        "use": "official",
        "family": "Smith",
        "given": [ "John" ]
      } ],
      "qualification": [ {
        "identifier": [ {
          "system": "http://hl7.org/fhir/sid/us-npi",
          "value": "1234567890"
        } ],
        "code": {
          "coding": [ {
            "system": "http://terminology.hl7.org/CodeSystem/v2-0203",
            "code": "MD",
            "display": "Medical License number"
          } ]
        }
      } ]
    },
    "request": {
      "method": "PUT",
      "url": "Practitioner/272b1b23-6144-40c5-aba8-6279ba11bd5b"
    }
  }, {
    "fullUrl": "https://madie.cms.gov/Coverage/1f7a125e-445a-4341-b839-ac24e074decb",
    "resource": {
      "resourceType": "Coverage",
      "id": "1f7a125e-445a-4341-b839-ac24e074decb",
      "status": "active",
      "beneficiary": {
        "reference": "Patient/7c4f1e55-2462-45e5-9062-5cf8d04b40e2"
      },
      "payor": [ {
        "reference": "Organization/978fc24b-a1f9-4f02-8c6f-de6ea96ce824"
      } ]
    },
    "request": {
      "method": "PUT",
      "url": "Coverage/1f7a125e-445a-4341-b839-ac24e074decb"
    }
  }, {
    "fullUrl": "https://madie.cms.gov/Organization/978fc24b-a1f9-4f02-8c6f-de6ea96ce824",
    "resource": {
      "resourceType": "Organization",
      "id": "978fc24b-a1f9-4f02-8c6f-de6ea96ce824",
      "identifier": [ {
        "system": "http://cms.gov/insurance-ids",
        "value": "AET12345"
      } ],
      "type": [ {
        "coding": [ {
          "system": "http://terminology.hl7.org/CodeSystem/organization-type",
          "code": "prov",
          "display": "Healthcare Provider"
        } ]
      } ],
      "name": "Aetna Insurance",
      "telecom": [ {
        "system": "phone",
        "value": "+1-800-123-4567"
      } ],
      "address": [ {
        "line": [ "123 Main Street" ],
        "city": "Cityville",
        "state": "CA",
        "postalCode": "12345",
        "country": "USA"
      } ]
    },
    "request": {
      "method": "PUT",
      "url": "Organization/978fc24b-a1f9-4f02-8c6f-de6ea96ce824"
    }
  }, {
    "fullUrl": "https://madie.cms.gov/MeasureReport/a1082300-f8e1-423a-9b4b-f92dc7ecd422",
    "resource": {
      "resourceType": "MeasureReport",
      "id": "a1082300-f8e1-423a-9b4b-f92dc7ecd422",
      "meta": {
        "profile": [ "http://hl7.org/fhir/us/cqfmeasures/StructureDefinition/test-case-cqfm" ]
      },
      "contained": [ {
        "resourceType": "Parameters",
        "id": "9298ae5c-c620-4a5b-b643-eccf8799a025-parameters",
        "parameter": [ {
          "name": "subject",
          "valueString": "7c4f1e55-2462-45e5-9062-5cf8d04b40e2"
        } ]
      } ],
      "extension": [ {
        "url": "http://hl7.org/fhir/StructureDefinition/cqf-inputParameters",
        "valueReference": {
          "reference": "#9298ae5c-c620-4a5b-b643-eccf8799a025-parameters"
        }
      }, {
        "url": "http://hl7.org/fhir/us/cqfmeasures/StructureDefinition/cqfm-testCaseDescription",
        "valueMarkdown": "First Encounter has Adverse Event Fall + Mod injury diag NPOA. \nSecond encounter has Adverse Event Fall + Mod injury diag POA so does not meet num. Injury diag must be NPOA."
      } ],
      "modifierExtension": [ {
        "url": "http://hl7.org/fhir/us/cqfmeasures/StructureDefinition/cqfm-isTestCase",
        "valueBoolean": true
      } ],
      "status": "complete",
      "type": "individual",
      "measure": "https://madie.cms.gov/Measure/CMS1017FHIRHHFI",
      "period": {
        "start": "2026-01-01",
        "end": "2026-12-31"
      },
      "group": [ {
        "id": "Group_1",
        "population": [ {
          "id": "InitialPopulation_1",
          "code": {
            "coding": [ {
              "system": "http://terminology.hl7.org/CodeSystem/measure-population",
              "code": "initial-population",
              "display": "Initial Population"
            } ]
          },
          "count": 2
        }, {
          "id": "Denominator_1",
          "code": {
            "coding": [ {
              "system": "http://terminology.hl7.org/CodeSystem/measure-population",
              "code": "denominator",
              "display": "Denominator"
            } ]
          },
          "count": 2
        }, {
          "id": "DenominatorExclusion_1",
          "code": {
            "coding": [ {
              "system": "http://terminology.hl7.org/CodeSystem/measure-population",
              "code": "denominator-exclusion",
              "display": "Denominator Exclusion"
            } ]
          },
          "count": 0
        }, {
          "id": "Numerator_1",
          "code": {
            "coding": [ {
              "system": "http://terminology.hl7.org/CodeSystem/measure-population",
              "code": "numerator",
              "display": "Numerator"
            } ]
          },
          "count": 1
        }, {
          "id": "NumeratorExclusion_1",
          "code": {
            "coding": [ {
              "system": "http://terminology.hl7.org/CodeSystem/measure-population",
              "code": "numerator-exclusion",
              "display": "Numerator Exclusion"
            } ]
          },
          "count": 0
        }, {
          "id": "MeasureObservation_1_1_1",
          "code": {
            "coding": [ {
              "system": "http://terminology.hl7.org/CodeSystem/measure-population",
              "code": "measure-observation",
              "display": "Measure Observation"
            } ]
          },
          "count": 4
        }, {
          "id": "MeasureObservation_1_1_2",
          "code": {
            "coding": [ {
              "system": "http://terminology.hl7.org/CodeSystem/measure-population",
              "code": "measure-observation",
              "display": "Measure Observation"
            } ]
          },
          "count": 3
        }, {
          "id": "MeasureObservation_1_2_1",
          "code": {
            "coding": [ {
              "system": "http://terminology.hl7.org/CodeSystem/measure-population",
              "code": "measure-observation",
              "display": "Measure Observation"
            } ]
          },
          "count": 1
        } ],
        "measureScore": {
          "value": 0.0
        }
      } ],
      "evaluatedResource": [ {
        "reference": "Claim/93b333d3-a843-45a6-9a1f-3e9c731b13ed"
      }, {
        "reference": "Claim/67fd22bb-955f-4944-8a34-919b202bb253"
      }, {
        "reference": "Claim/a25e66d1-fd89-43a1-9a4e-1d67a17a8af2"
      }, {
        "reference": "Claim/9505b022-f345-4d14-97bf-fab5d29ddefd"
      }, {
        "reference": "Encounter/938f1c05-5826-4926-aa8f-c9514ba32402"
      }, {
        "reference": "Encounter/0e416014-f324-4c1e-afba-c418b5307533"
      }, {
        "reference": "Encounter/8d8d4c35-9df6-4994-a265-a77f3f170d3b"
      }, {
        "reference": "Patient/7c4f1e55-2462-45e5-9062-5cf8d04b40e2"
      }, {
        "reference": "AdverseEvent/608d8d9b-cc7e-4a28-994e-6dc0de0aeae6"
      }, {
        "reference": "AdverseEvent/9cbe445a-bc6d-4bc5-8d80-4d4cc87e0aa9"
      }, {
        "reference": "Practitioner/272b1b23-6144-40c5-aba8-6279ba11bd5b"
      }, {
        "reference": "Coverage/1f7a125e-445a-4341-b839-ac24e074decb"
      }, {
        "reference": "Organization/978fc24b-a1f9-4f02-8c6f-de6ea96ce824"
      } ]
    },
    "request": {
      "method": "PUT",
      "url": "MeasureReport/a1082300-f8e1-423a-9b4b-f92dc7ecd422"
    }
  } ]
}