{
  "resourceType": "Bundle",
  "id": "2Enc2FallsWithInjury",
  "type": "transaction",
  "entry": [ {
    "fullUrl": "https://madie.cms.gov/Claim/0b34db02-09b5-4e2c-a378-d33244bde927",
    "resource": {
      "resourceType": "Claim",
      "id": "0b34db02-09b5-4e2c-a378-d33244bde927",
      "meta": {
        "profile": [ "http://hl7.org/fhir/us/qicore/StructureDefinition/qicore-claim" ]
      },
      "status": "active",
      "type": {
        "coding": [ {
          "system": "http://terminology.hl7.org/CodeSystem/claim-type",
          "code": "professional",
          "display": "Professional"
        } ]
      },
      "use": "claim",
      "patient": {
        "reference": "Patient/0884b17b-baa4-47c0-a2b6-5849230dcf43"
      },
      "created": "2026-12-12",
      "provider": {
        "reference": "Practitioner/7d477c57-81dc-4f58-b040-113ff75c4894"
      },
      "priority": {
        "coding": [ {
          "system": "http://terminology.hl7.org/CodeSystem/processpriority",
          "code": "normal"
        } ]
      },
      "diagnosis": [ {
        "sequence": 1,
        "diagnosisCodeableConcept": {
          "coding": [ {
            "system": "http://hl7.org/fhir/sid/icd-10-cm",
            "code": "W01.0XXA"
          } ]
        },
        "onAdmission": {
          "coding": [ {
            "system": "https://www.cms.gov/Medicare/Medicare-Fee-for-Service-Payment/HospitalAcqCond/Coding",
            "code": "N"
          } ]
        }
      } ],
      "insurance": [ {
        "sequence": 1,
        "focal": true,
        "coverage": {
          "reference": "Coverage/87696d54-5499-4247-b591-17b4575abca1"
        }
      } ],
      "item": [ {
        "sequence": 1,
        "diagnosisSequence": [ 1, 2 ],
        "productOrService": {
          "coding": [ {
            "system": "http://terminology.hl7.org/CodeSystem/ex-USCLS",
            "code": "1101"
          } ]
        },
        "encounter": [ {
          "reference": "Encounter/8099f22c-3ed0-409a-a605-0c15b27a47c6"
        } ]
      } ]
    },
    "request": {
      "method": "PUT",
      "url": "Claim/0b34db02-09b5-4e2c-a378-d33244bde927"
    }
  }, {
    "fullUrl": "https://madie.cms.gov/Claim/b0a9a912-2941-4d7d-bd6b-69eabd57d384",
    "resource": {
      "resourceType": "Claim",
      "id": "b0a9a912-2941-4d7d-bd6b-69eabd57d384",
      "meta": {
        "profile": [ "http://hl7.org/fhir/us/qicore/StructureDefinition/qicore-claim" ]
      },
      "status": "active",
      "type": {
        "coding": [ {
          "system": "http://terminology.hl7.org/CodeSystem/claim-type",
          "code": "professional",
          "display": "Professional"
        } ]
      },
      "use": "claim",
      "patient": {
        "reference": "Patient/0884b17b-baa4-47c0-a2b6-5849230dcf43"
      },
      "created": "2026-12-12",
      "provider": {
        "reference": "Practitioner/7d477c57-81dc-4f58-b040-113ff75c4894"
      },
      "priority": {
        "coding": [ {
          "system": "http://terminology.hl7.org/CodeSystem/processpriority",
          "code": "normal"
        } ]
      },
      "diagnosis": [ {
        "sequence": 2,
        "diagnosisCodeableConcept": {
          "coding": [ {
            "system": "http://hl7.org/fhir/sid/icd-10-cm",
            "code": "S01.309A"
          } ]
        },
        "onAdmission": {
          "coding": [ {
            "system": "https://www.cms.gov/Medicare/Medicare-Fee-for-Service-Payment/HospitalAcqCond/Coding",
            "code": "N"
          } ]
        }
      } ],
      "insurance": [ {
        "sequence": 1,
        "focal": true,
        "coverage": {
          "reference": "Coverage/87696d54-5499-4247-b591-17b4575abca1"
        }
      } ],
      "item": [ {
        "sequence": 1,
        "diagnosisSequence": [ 1, 2 ],
        "productOrService": {
          "coding": [ {
            "system": "http://terminology.hl7.org/CodeSystem/ex-USCLS",
            "code": "1101"
          } ]
        },
        "encounter": [ {
          "reference": "Encounter/8099f22c-3ed0-409a-a605-0c15b27a47c6"
        } ]
      } ]
    },
    "request": {
      "method": "PUT",
      "url": "Claim/b0a9a912-2941-4d7d-bd6b-69eabd57d384"
    }
  }, {
    "fullUrl": "https://madie.cms.gov/Claim/110d69d4-6906-4e3e-a4ee-b33c584b86ed",
    "resource": {
      "resourceType": "Claim",
      "id": "110d69d4-6906-4e3e-a4ee-b33c584b86ed",
      "meta": {
        "profile": [ "http://hl7.org/fhir/us/qicore/StructureDefinition/qicore-claim" ]
      },
      "status": "active",
      "type": {
        "coding": [ {
          "system": "http://terminology.hl7.org/CodeSystem/claim-type",
          "code": "professional",
          "display": "Professional"
        } ]
      },
      "use": "claim",
      "patient": {
        "reference": "Patient/0884b17b-baa4-47c0-a2b6-5849230dcf43"
      },
      "created": "2026-12-12",
      "provider": {
        "reference": "Practitioner/7d477c57-81dc-4f58-b040-113ff75c4894"
      },
      "priority": {
        "coding": [ {
          "system": "http://terminology.hl7.org/CodeSystem/processpriority",
          "code": "normal"
        } ]
      },
      "diagnosis": [ {
        "sequence": 1,
        "diagnosisCodeableConcept": {
          "coding": [ {
            "system": "http://snomed.info/sct",
            "code": "14047009"
          } ]
        },
        "onAdmission": {
          "coding": [ {
            "system": "https://www.cms.gov/Medicare/Medicare-Fee-for-Service-Payment/HospitalAcqCond/Coding",
            "code": "N"
          } ]
        }
      } ],
      "insurance": [ {
        "sequence": 1,
        "focal": true,
        "coverage": {
          "reference": "Coverage/87696d54-5499-4247-b591-17b4575abca1"
        }
      } ],
      "item": [ {
        "sequence": 1,
        "diagnosisSequence": [ 1, 2 ],
        "productOrService": {
          "coding": [ {
            "system": "http://terminology.hl7.org/CodeSystem/ex-USCLS",
            "code": "1101"
          } ]
        },
        "encounter": [ {
          "reference": "Encounter/456e6140-98dc-4810-8a6c-25ce265e4e7d"
        } ]
      } ]
    },
    "request": {
      "method": "PUT",
      "url": "Claim/110d69d4-6906-4e3e-a4ee-b33c584b86ed"
    }
  }, {
    "fullUrl": "https://madie.cms.gov/Claim/7a535ec8-ca88-4e9f-858a-c3dc4198acdd",
    "resource": {
      "resourceType": "Claim",
      "id": "7a535ec8-ca88-4e9f-858a-c3dc4198acdd",
      "meta": {
        "profile": [ "http://hl7.org/fhir/us/qicore/StructureDefinition/qicore-claim" ]
      },
      "status": "active",
      "type": {
        "coding": [ {
          "system": "http://terminology.hl7.org/CodeSystem/claim-type",
          "code": "professional",
          "display": "Professional"
        } ]
      },
      "use": "claim",
      "patient": {
        "reference": "Patient/0884b17b-baa4-47c0-a2b6-5849230dcf43"
      },
      "created": "2026-12-12",
      "provider": {
        "reference": "Practitioner/7d477c57-81dc-4f58-b040-113ff75c4894"
      },
      "priority": {
        "coding": [ {
          "system": "http://terminology.hl7.org/CodeSystem/processpriority",
          "code": "normal"
        } ]
      },
      "diagnosis": [ {
        "sequence": 2,
        "diagnosisCodeableConcept": {
          "coding": [ {
            "system": "http://hl7.org/fhir/sid/icd-10-cm",
            "code": "M80.00XA"
          } ]
        },
        "onAdmission": {
          "coding": [ {
            "system": "https://www.cms.gov/Medicare/Medicare-Fee-for-Service-Payment/HospitalAcqCond/Coding",
            "code": "N"
          } ]
        }
      } ],
      "insurance": [ {
        "sequence": 1,
        "focal": true,
        "coverage": {
          "reference": "Coverage/87696d54-5499-4247-b591-17b4575abca1"
        }
      } ],
      "item": [ {
        "sequence": 1,
        "diagnosisSequence": [ 1, 2 ],
        "productOrService": {
          "coding": [ {
            "system": "http://terminology.hl7.org/CodeSystem/ex-USCLS",
            "code": "1101"
          } ]
        },
        "encounter": [ {
          "reference": "Encounter/456e6140-98dc-4810-8a6c-25ce265e4e7d"
        } ]
      } ]
    },
    "request": {
      "method": "PUT",
      "url": "Claim/7a535ec8-ca88-4e9f-858a-c3dc4198acdd"
    }
  }, {
    "fullUrl": "https://madie.cms.gov/Encounter/456e6140-98dc-4810-8a6c-25ce265e4e7d",
    "resource": {
      "resourceType": "Encounter",
      "id": "456e6140-98dc-4810-8a6c-25ce265e4e7d",
      "meta": {
        "profile": [ "http://hl7.org/fhir/us/qicore/StructureDefinition/qicore-encounter" ]
      },
      "status": "finished",
      "class": {
        "system": "http://terminology.hl7.org/CodeSystem/v3-ActCode",
        "code": "IMP",
        "display": "inpatient encounter"
      },
      "type": [ {
        "coding": [ {
          "system": "http://snomed.info/sct",
          "code": "183452005"
        } ]
      } ],
      "subject": {
        "reference": "Patient/0884b17b-baa4-47c0-a2b6-5849230dcf43"
      },
      "period": {
        "start": "2026-12-08T08:00:00.000+00:00",
        "end": "2026-12-12T08:15:00.000+00:00"
      },
      "reasonCode": [ {
        "coding": [ {
          "system": "http://snomed.info/sct",
          "code": "14047009"
        } ]
      }, {
        "coding": [ {
          "system": "http://hl7.org/fhir/sid/icd-10-cm",
          "code": "M80.00XA"
        } ]
      } ]
    },
    "request": {
      "method": "PUT",
      "url": "Encounter/456e6140-98dc-4810-8a6c-25ce265e4e7d"
    }
  }, {
    "fullUrl": "https://madie.cms.gov/Encounter/8099f22c-3ed0-409a-a605-0c15b27a47c6",
    "resource": {
      "resourceType": "Encounter",
      "id": "8099f22c-3ed0-409a-a605-0c15b27a47c6",
      "meta": {
        "profile": [ "http://hl7.org/fhir/us/qicore/StructureDefinition/qicore-encounter" ]
      },
      "status": "finished",
      "class": {
        "system": "http://terminology.hl7.org/CodeSystem/v3-ActCode",
        "code": "IMP",
        "display": "inpatient encounter"
      },
      "type": [ {
        "coding": [ {
          "system": "http://snomed.info/sct",
          "code": "183452005"
        } ]
      } ],
      "subject": {
        "reference": "Patient/0884b17b-baa4-47c0-a2b6-5849230dcf43"
      },
      "period": {
        "start": "2026-11-09T11:00:00.000+00:00",
        "end": "2026-11-12T08:15:00.000+00:00"
      }
    },
    "request": {
      "method": "PUT",
      "url": "Encounter/8099f22c-3ed0-409a-a605-0c15b27a47c6"
    }
  }, {
    "fullUrl": "https://madie.cms.gov/Encounter/29f948e4-2911-4887-a15d-d71ae12ee10b",
    "resource": {
      "resourceType": "Encounter",
      "id": "29f948e4-2911-4887-a15d-d71ae12ee10b",
      "meta": {
        "profile": [ "http://hl7.org/fhir/us/qicore/StructureDefinition/qicore-encounter" ]
      },
      "status": "finished",
      "class": {
        "system": "http://terminology.hl7.org/CodeSystem/v3-ActCode",
        "code": "IMP",
        "display": "inpatient encounter"
      },
      "type": [ {
        "coding": [ {
          "system": "http://snomed.info/sct",
          "code": "4525004"
        } ]
      } ],
      "subject": {
        "reference": "Patient/0884b17b-baa4-47c0-a2b6-5849230dcf43"
      },
      "period": {
        "start": "2026-11-09T08:00:00.000+00:00",
        "end": "2026-11-09T10:15:00.000+00:00"
      },
      "reasonCode": [ {
        "coding": [ {
          "system": "http://hl7.org/fhir/sid/icd-10-cm",
          "code": "W01.0XXA"
        } ]
      }, {
        "coding": [ {
          "system": "http://hl7.org/fhir/sid/icd-10-cm",
          "code": "S01.309A"
        } ]
      } ]
    },
    "request": {
      "method": "PUT",
      "url": "Encounter/29f948e4-2911-4887-a15d-d71ae12ee10b"
    }
  }, {
    "fullUrl": "https://madie.cms.gov/Patient/0884b17b-baa4-47c0-a2b6-5849230dcf43",
    "resource": {
      "resourceType": "Patient",
      "id": "0884b17b-baa4-47c0-a2b6-5849230dcf43",
      "meta": {
        "profile": [ "http://hl7.org/fhir/us/qicore/StructureDefinition/qicore-patient" ]
      },
      "extension": [ {
        "url": "http://hl7.org/fhir/us/core/StructureDefinition/us-core-race",
        "extension": [ {
          "url": "ombCategory",
          "valueCoding": {
            "system": "urn:oid:2.16.840.1.113883.6.238",
            "code": "2054-5",
            "display": "Black or African American",
            "userSelected": true
          }
        }, {
          "url": "text",
          "valueString": "Black or African American"
        } ]
      }, {
        "url": "http://hl7.org/fhir/us/core/StructureDefinition/us-core-ethnicity",
        "extension": [ {
          "url": "ombCategory",
          "valueCoding": {
            "system": "urn:oid:2.16.840.1.113883.6.238",
            "code": "2186-5",
            "display": "Not Hispanic or Latino",
            "userSelected": true
          }
        }, {
          "url": "text",
          "valueString": "Not Hispanic or Latino"
        } ]
      } ],
      "identifier": [ {
        "type": {
          "coding": [ {
            "system": "http://terminology.hl7.org/CodeSystem/v2-0203",
            "code": "MR"
          } ]
        },
        "system": "https://bonnie-fhir.healthit.gov/",
        "value": "61152a3b98086b7a79cbd7c1"
      } ],
      "active": true,
      "name": [ {
        "use": "usual",
        "family": "NUMERPass",
        "given": [ "2Enc2FallsWithInjury" ]
      } ],
      "gender": "male",
      "birthDate": "1964-12-11"
    },
    "request": {
      "method": "PUT",
      "url": "Patient/0884b17b-baa4-47c0-a2b6-5849230dcf43"
    }
  }, {
    "fullUrl": "https://madie.cms.gov/AdverseEvent/d5cad481-606f-437a-807e-98d9c57e64c1",
    "resource": {
      "resourceType": "AdverseEvent",
      "id": "d5cad481-606f-437a-807e-98d9c57e64c1",
      "meta": {
        "profile": [ "http://hl7.org/fhir/us/qicore/StructureDefinition/qicore-adverseevent" ]
      },
      "actuality": "actual",
      "event": {
        "coding": [ {
          "system": "http://hl7.org/fhir/sid/icd-10-cm",
          "code": "W01.0XXA"
        } ]
      },
      "subject": {
        "reference": "Patient/0884b17b-baa4-47c0-a2b6-5849230dcf43"
      },
      "date": "2026-12-09T08:00:00.000+00:00"
    },
    "request": {
      "method": "PUT",
      "url": "AdverseEvent/d5cad481-606f-437a-807e-98d9c57e64c1"
    }
  }, {
    "fullUrl": "https://madie.cms.gov/AdverseEvent/ad00eae2-deb0-45d7-819e-20b397b3e85a",
    "resource": {
      "resourceType": "AdverseEvent",
      "id": "ad00eae2-deb0-45d7-819e-20b397b3e85a",
      "meta": {
        "profile": [ "http://hl7.org/fhir/us/qicore/StructureDefinition/qicore-adverseevent" ]
      },
      "actuality": "actual",
      "event": {
        "coding": [ {
          "system": "http://snomed.info/sct",
          "code": "14047009"
        } ]
      },
      "subject": {
        "reference": "Patient/0884b17b-baa4-47c0-a2b6-5849230dcf43"
      },
      "date": "2026-11-10T08:00:00.000+00:00"
    },
    "request": {
      "method": "PUT",
      "url": "AdverseEvent/ad00eae2-deb0-45d7-819e-20b397b3e85a"
    }
  }, {
    "fullUrl": "https://madie.cms.gov/Practitioner/7d477c57-81dc-4f58-b040-113ff75c4894",
    "resource": {
      "resourceType": "Practitioner",
      "id": "7d477c57-81dc-4f58-b040-113ff75c4894",
      "identifier": [ {
        "system": "http://www.cms.gov/identifiers/pracitioners",
        "value": "P12345"
      } ],
      "name": [ {
        "use": "official",
        "family": "Smith",
        "given": [ "John" ]
      } ],
      "qualification": [ {
        "identifier": [ {
          "system": "http://hl7.org/fhir/sid/us-npi",
          "value": "1234567890"
        } ],
        "code": {
          "coding": [ {
            "system": "http://terminology.hl7.org/CodeSystem/v2-0203",
            "code": "MD",
            "display": "Medical License number"
          } ]
        }
      } ]
    },
    "request": {
      "method": "PUT",
      "url": "Practitioner/7d477c57-81dc-4f58-b040-113ff75c4894"
    }
  }, {
    "fullUrl": "https://madie.cms.gov/Coverage/87696d54-5499-4247-b591-17b4575abca1",
    "resource": {
      "resourceType": "Coverage",
      "id": "87696d54-5499-4247-b591-17b4575abca1",
      "status": "active",
      "beneficiary": {
        "reference": "Patient/0884b17b-baa4-47c0-a2b6-5849230dcf43"
      },
      "payor": [ {
        "reference": "Organization/ca70c5f9-975b-4a2d-bce2-dbc486bed349"
      } ]
    },
    "request": {
      "method": "PUT",
      "url": "Coverage/87696d54-5499-4247-b591-17b4575abca1"
    }
  }, {
    "fullUrl": "https://madie.cms.gov/Organization/ca70c5f9-975b-4a2d-bce2-dbc486bed349",
    "resource": {
      "resourceType": "Organization",
      "id": "ca70c5f9-975b-4a2d-bce2-dbc486bed349",
      "identifier": [ {
        "system": "http://cms.gov/insurance-ids",
        "value": "AET12345"
      } ],
      "type": [ {
        "coding": [ {
          "system": "http://terminology.hl7.org/CodeSystem/organization-type",
          "code": "prov",
          "display": "Healthcare Provider"
        } ]
      } ],
      "name": "Aetna Insurance",
      "telecom": [ {
        "system": "phone",
        "value": "+1-800-123-4567"
      } ],
      "address": [ {
        "line": [ "123 Main Street" ],
        "city": "Cityville",
        "state": "CA",
        "postalCode": "12345",
        "country": "USA"
      } ]
    },
    "request": {
      "method": "PUT",
      "url": "Organization/ca70c5f9-975b-4a2d-bce2-dbc486bed349"
    }
  }, {
    "fullUrl": "https://madie.cms.gov/MeasureReport/80c03be2-9532-44d2-8682-36b47af84745",
    "resource": {
      "resourceType": "MeasureReport",
      "id": "80c03be2-9532-44d2-8682-36b47af84745",
      "meta": {
        "profile": [ "http://hl7.org/fhir/us/cqfmeasures/StructureDefinition/test-case-cqfm" ]
      },
      "contained": [ {
        "resourceType": "Parameters",
        "id": "a29699b7-508b-4a29-89ae-123abfdc348a-parameters",
        "parameter": [ {
          "name": "subject",
          "valueString": "0884b17b-baa4-47c0-a2b6-5849230dcf43"
        } ]
      } ],
      "extension": [ {
        "url": "http://hl7.org/fhir/StructureDefinition/cqf-inputParameters",
        "valueReference": {
          "reference": "#a29699b7-508b-4a29-89ae-123abfdc348a-parameters"
        }
      }, {
        "url": "http://hl7.org/fhir/us/cqfmeasures/StructureDefinition/cqfm-testCaseDescription",
        "valueMarkdown": "Patient fall + injury during 2 encounters. Both had Adverse Event Fall + Major or Mod Injury NPOA."
      } ],
      "modifierExtension": [ {
        "url": "http://hl7.org/fhir/us/cqfmeasures/StructureDefinition/cqfm-isTestCase",
        "valueBoolean": true
      } ],
      "status": "complete",
      "type": "individual",
      "measure": "https://madie.cms.gov/Measure/CMS1017FHIRHHFI",
      "period": {
        "start": "2026-01-01",
        "end": "2026-12-31"
      },
      "group": [ {
        "id": "Group_1",
        "population": [ {
          "id": "InitialPopulation_1",
          "code": {
            "coding": [ {
              "system": "http://terminology.hl7.org/CodeSystem/measure-population",
              "code": "initial-population",
              "display": "Initial Population"
            } ]
          },
          "count": 2
        }, {
          "id": "Denominator_1",
          "code": {
            "coding": [ {
              "system": "http://terminology.hl7.org/CodeSystem/measure-population",
              "code": "denominator",
              "display": "Denominator"
            } ]
          },
          "count": 2
        }, {
          "id": "DenominatorExclusion_1",
          "code": {
            "coding": [ {
              "system": "http://terminology.hl7.org/CodeSystem/measure-population",
              "code": "denominator-exclusion",
              "display": "Denominator Exclusion"
            } ]
          },
          "count": 0
        }, {
          "id": "Numerator_1",
          "code": {
            "coding": [ {
              "system": "http://terminology.hl7.org/CodeSystem/measure-population",
              "code": "numerator",
              "display": "Numerator"
            } ]
          },
          "count": 2
        }, {
          "id": "NumeratorExclusion_1",
          "code": {
            "coding": [ {
              "system": "http://terminology.hl7.org/CodeSystem/measure-population",
              "code": "numerator-exclusion",
              "display": "Numerator Exclusion"
            } ]
          },
          "count": 0
        }, {
          "id": "MeasureObservation_1_1_1",
          "code": {
            "coding": [ {
              "system": "http://terminology.hl7.org/CodeSystem/measure-population",
              "code": "measure-observation",
              "display": "Measure Observation"
            } ]
          },
          "count": 4
        }, {
          "id": "MeasureObservation_1_1_2",
          "code": {
            "coding": [ {
              "system": "http://terminology.hl7.org/CodeSystem/measure-population",
              "code": "measure-observation",
              "display": "Measure Observation"
            } ]
          },
          "count": 3
        }, {
          "id": "MeasureObservation_1_2_1",
          "code": {
            "coding": [ {
              "system": "http://terminology.hl7.org/CodeSystem/measure-population",
              "code": "measure-observation",
              "display": "Measure Observation"
            } ]
          },
          "count": 1
        }, {
          "id": "MeasureObservation_1_2_2",
          "code": {
            "coding": [ {
              "system": "http://terminology.hl7.org/CodeSystem/measure-population",
              "code": "measure-observation",
              "display": "Measure Observation"
            } ]
          },
          "count": 1
        } ],
        "measureScore": {
          "value": 0.0
        }
      } ],
      "evaluatedResource": [ {
        "reference": "Claim/0b34db02-09b5-4e2c-a378-d33244bde927"
      }, {
        "reference": "Claim/b0a9a912-2941-4d7d-bd6b-69eabd57d384"
      }, {
        "reference": "Claim/110d69d4-6906-4e3e-a4ee-b33c584b86ed"
      }, {
        "reference": "Claim/7a535ec8-ca88-4e9f-858a-c3dc4198acdd"
      }, {
        "reference": "Encounter/456e6140-98dc-4810-8a6c-25ce265e4e7d"
      }, {
        "reference": "Encounter/8099f22c-3ed0-409a-a605-0c15b27a47c6"
      }, {
        "reference": "Encounter/29f948e4-2911-4887-a15d-d71ae12ee10b"
      }, {
        "reference": "Patient/0884b17b-baa4-47c0-a2b6-5849230dcf43"
      }, {
        "reference": "AdverseEvent/d5cad481-606f-437a-807e-98d9c57e64c1"
      }, {
        "reference": "AdverseEvent/ad00eae2-deb0-45d7-819e-20b397b3e85a"
      }, {
        "reference": "Practitioner/7d477c57-81dc-4f58-b040-113ff75c4894"
      }, {
        "reference": "Coverage/87696d54-5499-4247-b591-17b4575abca1"
      }, {
        "reference": "Organization/ca70c5f9-975b-4a2d-bce2-dbc486bed349"
      } ]
    },
    "request": {
      "method": "PUT",
      "url": "MeasureReport/80c03be2-9532-44d2-8682-36b47af84745"
    }
  } ]
}