{
  "resourceType": "Bundle",
  "id": "tests-NumerPass-RVwithAntihypertensivePlanAtAdmission-bundle",
  "type": "transaction",
  "entry": [ {
    "fullUrl": "https://madie.cms.gov/Encounter/1988d1c6-02fb-4970-aec2-ee38689fc8d5",
    "resource": {
      "resourceType": "Encounter",
      "id": "1988d1c6-02fb-4970-aec2-ee38689fc8d5",
      "meta": {
        "profile": [ "http://hl7.org/fhir/us/qicore/StructureDefinition/qicore-encounter" ]
      },
      "status": "finished",
      "class": {
        "system": "http://terminology.hl7.org/CodeSystem/v3-ActCode",
        "code": "IMP",
        "display": "inpatient encounter"
      },
      "type": [ {
        "coding": [ {
          "system": "http://snomed.info/sct",
          "code": "183452005",
          "display": "Emergency hospital admission"
        } ]
      } ],
      "subject": {
        "reference": "Patient/55b18e1a-c949-4d85-b1c5-caa91fc6ac4b"
      },
      "period": {
        "start": "2026-10-19T08:30:00.000+00:00",
        "end": "2026-10-21T08:15:00.000+00:00"
      },
      "reasonCode": [ {
        "coding": [ {
          "system": "http://snomed.info/sct",
          "code": "14047009"
        } ]
      }, {
        "coding": [ {
          "system": "http://snomed.info/sct",
          "code": "64859006"
        } ]
      } ]
    },
    "request": {
      "method": "PUT",
      "url": "Encounter/1988d1c6-02fb-4970-aec2-ee38689fc8d5"
    }
  }, {
    "fullUrl": "https://madie.cms.gov/Encounter/fd62035b-30c6-45e5-986a-39bf202f4a72",
    "resource": {
      "resourceType": "Encounter",
      "id": "fd62035b-30c6-45e5-986a-39bf202f4a72",
      "meta": {
        "profile": [ "http://hl7.org/fhir/us/qicore/StructureDefinition/qicore-encounter" ]
      },
      "status": "finished",
      "class": {
        "system": "http://terminology.hl7.org/CodeSystem/v3-ActCode",
        "code": "EMER",
        "display": "emergency encounter"
      },
      "type": [ {
        "coding": [ {
          "system": "http://snomed.info/sct",
          "code": "4525004",
          "display": "Emergency department patient visit (procedure)"
        } ]
      } ],
      "subject": {
        "reference": "Patient/55b18e1a-c949-4d85-b1c5-caa91fc6ac4b"
      },
      "period": {
        "start": "2026-10-18T09:15:00.000+00:00",
        "end": "2026-10-19T08:15:00.000+00:00"
      }
    },
    "request": {
      "method": "PUT",
      "url": "Encounter/fd62035b-30c6-45e5-986a-39bf202f4a72"
    }
  }, {
    "fullUrl": "https://madie.cms.gov/Patient/55b18e1a-c949-4d85-b1c5-caa91fc6ac4b",
    "resource": {
      "resourceType": "Patient",
      "id": "55b18e1a-c949-4d85-b1c5-caa91fc6ac4b",
      "meta": {
        "profile": [ "http://hl7.org/fhir/us/qicore/StructureDefinition/qicore-patient" ]
      },
      "extension": [ {
        "url": "http://hl7.org/fhir/us/core/StructureDefinition/us-core-race",
        "extension": [ {
          "url": "ombCategory",
          "valueCoding": {
            "system": "urn:oid:2.16.840.1.113883.6.238",
            "code": "2106-3",
            "display": "White"
          }
        }, {
          "url": "text",
          "valueString": "White"
        } ]
      }, {
        "url": "http://hl7.org/fhir/us/core/StructureDefinition/us-core-ethnicity",
        "extension": [ {
          "url": "ombCategory",
          "valueCoding": {
            "system": "urn:oid:2.16.840.1.113883.6.238",
            "code": "2135-2",
            "display": "Hispanic or Latino"
          }
        }, {
          "url": "text",
          "valueString": "Hispanic or Latino"
        } ]
      }, {
        "url": "http://hl7.org/fhir/us/core/StructureDefinition/us-core-sex",
        "valueCode": "248153007"
      } ],
      "identifier": [ {
        "system": "http://hospital.smarthealthit.org",
        "value": "999999999"
      } ],
      "name": [ {
        "family": "Example",
        "given": [ "Patient" ]
      } ],
      "gender": "female",
      "birthDate": "1956-01-01"
    },
    "request": {
      "method": "PUT",
      "url": "Patient/55b18e1a-c949-4d85-b1c5-caa91fc6ac4b"
    }
  }, {
    "fullUrl": "https://madie.cms.gov/Claim/ea144b76-c6ed-4d3c-bbc2-d4546c838147",
    "resource": {
      "resourceType": "Claim",
      "id": "ea144b76-c6ed-4d3c-bbc2-d4546c838147",
      "meta": {
        "profile": [ "http://hl7.org/fhir/us/qicore/StructureDefinition/qicore-claim" ]
      },
      "status": "active",
      "type": {
        "coding": [ {
          "system": "http://terminology.hl7.org/CodeSystem/claim-type",
          "code": "institutional",
          "display": "Institutional"
        } ]
      },
      "use": "claim",
      "patient": {
        "reference": "Patient/55b18e1a-c949-4d85-b1c5-caa91fc6ac4b"
      },
      "created": "2026-10-22",
      "provider": {
        "reference": "Practitioner/practitioner-1"
      },
      "priority": {
        "coding": [ {
          "system": "http://terminology.hl7.org/CodeSystem/processpriority",
          "code": "normal"
        } ]
      },
      "diagnosis": [ {
        "sequence": 1,
        "diagnosisCodeableConcept": {
          "coding": [ {
            "system": "http://snomed.info/sct",
            "code": "14047009"
          } ]
        }
      } ],
      "insurance": [ {
        "sequence": 1,
        "focal": true,
        "coverage": {
          "reference": "Coverage/coverage-1"
        }
      } ],
      "item": [ {
        "sequence": 1,
        "diagnosisSequence": [ 1, 2 ],
        "productOrService": {
          "coding": [ {
            "system": "http://terminology.hl7.org/CodeSystem/ex-USCLS",
            "code": "1101"
          } ]
        },
        "encounter": [ {
          "reference": "Encounter/1988d1c6-02fb-4970-aec2-ee38689fc8d5"
        } ]
      } ]
    },
    "request": {
      "method": "PUT",
      "url": "Claim/ea144b76-c6ed-4d3c-bbc2-d4546c838147"
    }
  }, {
    "fullUrl": "https://madie.cms.gov/Claim/5c5f3c9f-9ffc-4c77-8941-72cbbcc94ef8",
    "resource": {
      "resourceType": "Claim",
      "id": "5c5f3c9f-9ffc-4c77-8941-72cbbcc94ef8",
      "meta": {
        "profile": [ "http://hl7.org/fhir/us/qicore/StructureDefinition/qicore-claim" ]
      },
      "status": "active",
      "type": {
        "coding": [ {
          "system": "http://terminology.hl7.org/CodeSystem/claim-type",
          "code": "institutional",
          "display": "Institutional"
        } ]
      },
      "use": "claim",
      "patient": {
        "reference": "Patient/55b18e1a-c949-4d85-b1c5-caa91fc6ac4b"
      },
      "created": "2026-11-01",
      "provider": {
        "reference": "Practitioner/practitioner-1"
      },
      "priority": {
        "coding": [ {
          "system": "http://terminology.hl7.org/CodeSystem/processpriority",
          "code": "normal"
        } ]
      },
      "diagnosis": [ {
        "sequence": 1,
        "diagnosisCodeableConcept": {
          "coding": [ {
            "system": "http://hl7.org/fhir/sid/icd-10-cm",
            "code": "M80.00XA",
            "display": "Age-related osteoporosis with current pathological fracture, unspecified site, initial encounter for fracture"
          } ]
        }
      } ],
      "insurance": [ {
        "sequence": 1,
        "focal": true,
        "coverage": {
          "reference": "Coverage/coverage-1"
        }
      } ],
      "item": [ {
        "sequence": 1,
        "diagnosisSequence": [ 1, 2 ],
        "productOrService": {
          "coding": [ {
            "system": "http://terminology.hl7.org/CodeSystem/ex-USCLS",
            "code": "1101"
          } ]
        },
        "encounter": [ {
          "reference": "Encounter/1988d1c6-02fb-4970-aec2-ee38689fc8d5"
        } ]
      } ]
    },
    "request": {
      "method": "PUT",
      "url": "Claim/5c5f3c9f-9ffc-4c77-8941-72cbbcc94ef8"
    }
  }, {
    "fullUrl": "https://madie.cms.gov/MedicationRequest/90042404-e962-43af-b634-ade6030fa976",
    "resource": {
      "resourceType": "MedicationRequest",
      "id": "90042404-e962-43af-b634-ade6030fa976",
      "meta": {
        "profile": [ "http://hl7.org/fhir/us/qicore/StructureDefinition/qicore-medicationrequest" ]
      },
      "status": "active",
      "intent": "plan",
      "category": [ {
        "coding": [ {
          "system": "http://terminology.hl7.org/CodeSystem/medicationrequest-category",
          "code": "community",
          "display": "Community"
        } ]
      } ],
      "reportedReference": {
        "reference": "Patient/55b18e1a-c949-4d85-b1c5-caa91fc6ac4b"
      },
      "medicationCodeableConcept": {
        "coding": [ {
          "system": "http://www.nlm.nih.gov/research/umls/rxnorm",
          "code": "1000001"
        } ]
      },
      "subject": {
        "reference": "Patient/55b18e1a-c949-4d85-b1c5-caa91fc6ac4b"
      },
      "authoredOn": "2026-10-15",
      "requester": {
        "reference": "Practitioner/b8077ee7-3a44-4d8e-b0e1-b76d376b107b"
      },
      "dispenseRequest": {
        "quantity": {
          "value": 14,
          "unit": "tablet",
          "system": "http://unitsofmeasure.org",
          "code": "{tablet}"
        },
        "expectedSupplyDuration": {
          "value": 14,
          "unit": "days",
          "system": "http://unitsofmeasure.org",
          "code": "d"
        }
      }
    },
    "request": {
      "method": "PUT",
      "url": "MedicationRequest/90042404-e962-43af-b634-ade6030fa976"
    }
  }, {
    "fullUrl": "https://madie.cms.gov/Practitioner/b8077ee7-3a44-4d8e-b0e1-b76d376b107b",
    "resource": {
      "resourceType": "Practitioner",
      "id": "b8077ee7-3a44-4d8e-b0e1-b76d376b107b",
      "identifier": [ {
        "system": "http://www.cms.gov/identifiers/pracitioners",
        "value": "P12345"
      } ],
      "name": [ {
        "use": "official",
        "family": "Smith",
        "given": [ "John" ]
      } ],
      "qualification": [ {
        "identifier": [ {
          "system": "http://hl7.org/fhir/sid/us-npi",
          "value": "1234567890"
        } ],
        "code": {
          "coding": [ {
            "system": "http://terminology.hl7.org/CodeSystem/v2-0203",
            "code": "MD",
            "display": "Medical License number"
          } ]
        }
      } ]
    },
    "request": {
      "method": "PUT",
      "url": "Practitioner/b8077ee7-3a44-4d8e-b0e1-b76d376b107b"
    }
  }, {
    "fullUrl": "https://madie.cms.gov/Coverage/3d94ccea-867c-4243-9001-667d56e9c754",
    "resource": {
      "resourceType": "Coverage",
      "id": "3d94ccea-867c-4243-9001-667d56e9c754",
      "status": "active",
      "beneficiary": {
        "reference": "Patient/55b18e1a-c949-4d85-b1c5-caa91fc6ac4b"
      },
      "payor": [ {
        "reference": "Organization/6a69ad05-db83-4bb6-b5b2-3594795ec14b"
      } ]
    },
    "request": {
      "method": "PUT",
      "url": "Coverage/3d94ccea-867c-4243-9001-667d56e9c754"
    }
  }, {
    "fullUrl": "https://madie.cms.gov/Organization/6a69ad05-db83-4bb6-b5b2-3594795ec14b",
    "resource": {
      "resourceType": "Organization",
      "id": "6a69ad05-db83-4bb6-b5b2-3594795ec14b",
      "identifier": [ {
        "system": "http://cms.gov/insurance-ids",
        "value": "AET12345"
      } ],
      "type": [ {
        "coding": [ {
          "system": "http://terminology.hl7.org/CodeSystem/organization-type",
          "code": "prov",
          "display": "Healthcare Provider"
        } ]
      } ],
      "name": "Aetna Insurance",
      "telecom": [ {
        "system": "phone",
        "value": "+1-800-123-4567"
      } ],
      "address": [ {
        "line": [ "123 Main Street" ],
        "city": "Cityville",
        "state": "CA",
        "postalCode": "12345",
        "country": "USA"
      } ]
    },
    "request": {
      "method": "PUT",
      "url": "Organization/6a69ad05-db83-4bb6-b5b2-3594795ec14b"
    }
  }, {
    "fullUrl": "https://madie.cms.gov/MeasureReport/7d4b79a2-1c58-4e03-88a8-130bac6848a8",
    "resource": {
      "resourceType": "MeasureReport",
      "id": "7d4b79a2-1c58-4e03-88a8-130bac6848a8",
      "meta": {
        "profile": [ "http://hl7.org/fhir/us/cqfmeasures/StructureDefinition/test-case-cqfm" ]
      },
      "contained": [ {
        "resourceType": "Parameters",
        "id": "50ecc682-9369-458b-9066-98a2e1d0dc22-parameters",
        "parameter": [ {
          "name": "subject",
          "valueString": "55b18e1a-c949-4d85-b1c5-caa91fc6ac4b"
        } ]
      } ],
      "extension": [ {
        "url": "http://hl7.org/fhir/StructureDefinition/cqf-inputParameters",
        "valueReference": {
          "reference": "#50ecc682-9369-458b-9066-98a2e1d0dc22-parameters"
        }
      }, {
        "url": "http://hl7.org/fhir/us/cqfmeasures/StructureDefinition/cqfm-testCaseDescription",
        "valueMarkdown": "RVariable Encounter With Antihypertensive Plan At Admission"
      } ],
      "modifierExtension": [ {
        "url": "http://hl7.org/fhir/us/cqfmeasures/StructureDefinition/cqfm-isTestCase",
        "valueBoolean": true
      } ],
      "status": "complete",
      "type": "individual",
      "measure": "https://madie.cms.gov/Measure/CMS1017FHIRHHFI",
      "period": {
        "start": "2026-01-01",
        "end": "2026-12-31"
      },
      "group": [ {
        "id": "Group_1",
        "population": [ {
          "id": "InitialPopulation_1",
          "code": {
            "coding": [ {
              "system": "http://terminology.hl7.org/CodeSystem/measure-population",
              "code": "initial-population",
              "display": "Initial Population"
            } ]
          },
          "count": 1
        }, {
          "id": "Denominator_1",
          "code": {
            "coding": [ {
              "system": "http://terminology.hl7.org/CodeSystem/measure-population",
              "code": "denominator",
              "display": "Denominator"
            } ]
          },
          "count": 1
        }, {
          "id": "DenominatorExclusion_1",
          "code": {
            "coding": [ {
              "system": "http://terminology.hl7.org/CodeSystem/measure-population",
              "code": "denominator-exclusion",
              "display": "Denominator Exclusion"
            } ]
          },
          "count": 0
        }, {
          "id": "Numerator_1",
          "code": {
            "coding": [ {
              "system": "http://terminology.hl7.org/CodeSystem/measure-population",
              "code": "numerator",
              "display": "Numerator"
            } ]
          },
          "count": 1
        }, {
          "id": "NumeratorExclusion_1",
          "code": {
            "coding": [ {
              "system": "http://terminology.hl7.org/CodeSystem/measure-population",
              "code": "numerator-exclusion",
              "display": "Numerator Exclusion"
            } ]
          },
          "count": 0
        }, {
          "id": "MeasureObservation_1_1_1",
          "code": {
            "coding": [ {
              "system": "http://terminology.hl7.org/CodeSystem/measure-population",
              "code": "measure-observation",
              "display": "Measure Observation"
            } ]
          },
          "count": 2
        }, {
          "id": "MeasureObservation_1_2_1",
          "code": {
            "coding": [ {
              "system": "http://terminology.hl7.org/CodeSystem/measure-population",
              "code": "measure-observation",
              "display": "Measure Observation"
            } ]
          },
          "count": 1
        } ],
        "measureScore": {
          "value": 0.0
        }
      } ],
      "evaluatedResource": [ {
        "reference": "Encounter/1988d1c6-02fb-4970-aec2-ee38689fc8d5"
      }, {
        "reference": "Encounter/fd62035b-30c6-45e5-986a-39bf202f4a72"
      }, {
        "reference": "Patient/55b18e1a-c949-4d85-b1c5-caa91fc6ac4b"
      }, {
        "reference": "Claim/ea144b76-c6ed-4d3c-bbc2-d4546c838147"
      }, {
        "reference": "Claim/5c5f3c9f-9ffc-4c77-8941-72cbbcc94ef8"
      }, {
        "reference": "MedicationRequest/90042404-e962-43af-b634-ade6030fa976"
      }, {
        "reference": "Practitioner/b8077ee7-3a44-4d8e-b0e1-b76d376b107b"
      }, {
        "reference": "Coverage/3d94ccea-867c-4243-9001-667d56e9c754"
      }, {
        "reference": "Organization/6a69ad05-db83-4bb6-b5b2-3594795ec14b"
      } ]
    },
    "request": {
      "method": "PUT",
      "url": "MeasureReport/7d4b79a2-1c58-4e03-88a8-130bac6848a8"
    }
  } ]
}