{
  "resourceType": "Bundle",
  "id": "NUMERPass-MajorInjuryPOAandModInjNPOA",
  "type": "transaction",
  "entry": [ {
    "fullUrl": "https://madie.cms.gov/Encounter/668ecfe4-3c34-4f02-a4e6-69fb7668612f",
    "resource": {
      "resourceType": "Encounter",
      "id": "668ecfe4-3c34-4f02-a4e6-69fb7668612f",
      "meta": {
        "profile": [ "http://hl7.org/fhir/us/qicore/StructureDefinition/qicore-encounter-condition-diagnosis" ]
      },
      "status": "finished",
      "class": {
        "system": "http://terminology.hl7.org/CodeSystem/v3-ActCode",
        "code": "IMP",
        "display": "inpatient encounter"
      },
      "type": [ {
        "coding": [ {
          "system": "http://snomed.info/sct",
          "code": "183452005"
        } ]
      } ],
      "subject": {
        "reference": "Patient/e6383b7c-aa91-42f7-8dc8-693a8c7dcaf3"
      },
      "period": {
        "start": "2026-11-09T11:00:00.000+00:00",
        "end": "2026-11-13T08:15:00.000+00:00"
      },
      "diagnosis": [ {
        "extension": [ {
          "url": "http://hl7.org/fhir/us/qicore/StructureDefinition/qicore-encounter-diagnosisPresentOnAdmission",
          "valueCodeableConcept": {
            "coding": [ {
              "system": "https://www.cms.gov/Medicare/Medicare-Fee-for-Service-Payment/HospitalAcqCond/Coding",
              "code": "N"
            } ]
          }
        } ],
        "condition": {
          "reference": "Condition/MajorInjuryPOAandModInjNPOA-1"
        }
      }, {
        "extension": [ {
          "url": "http://hl7.org/fhir/us/qicore/StructureDefinition/qicore-encounter-diagnosisPresentOnAdmission",
          "valueCodeableConcept": {
            "coding": [ {
              "system": "https://www.cms.gov/Medicare/Medicare-Fee-for-Service-Payment/HospitalAcqCond/Coding",
              "code": "W"
            } ]
          }
        } ],
        "condition": {
          "reference": "Condition/NUMERPass-MajorInjuryPOAandModInjNPOA-2"
        }
      }, {
        "extension": [ {
          "url": "http://hl7.org/fhir/us/qicore/StructureDefinition/qicore-encounter-diagnosisPresentOnAdmission",
          "valueCodeableConcept": {
            "coding": [ {
              "system": "https://www.cms.gov/Medicare/Medicare-Fee-for-Service-Payment/HospitalAcqCond/Coding",
              "code": "N"
            } ]
          }
        } ],
        "condition": {
          "reference": "Condition/NUMERPass-MajorInjuryPOAandModInjNPOA-3"
        }
      } ]
    },
    "request": {
      "method": "PUT",
      "url": "Encounter/668ecfe4-3c34-4f02-a4e6-69fb7668612f"
    }
  }, {
    "fullUrl": "https://madie.cms.gov/Encounter/151fa7c3-6451-4f3f-838e-dee23f575fa8",
    "resource": {
      "resourceType": "Encounter",
      "id": "151fa7c3-6451-4f3f-838e-dee23f575fa8",
      "meta": {
        "profile": [ "http://hl7.org/fhir/us/qicore/StructureDefinition/qicore-encounter" ]
      },
      "status": "finished",
      "class": {
        "system": "http://terminology.hl7.org/CodeSystem/v3-ActCode",
        "code": "IMP",
        "display": "inpatient encounter"
      },
      "type": [ {
        "coding": [ {
          "system": "http://snomed.info/sct",
          "code": "4525004"
        } ]
      } ],
      "subject": {
        "reference": "Patient/e6383b7c-aa91-42f7-8dc8-693a8c7dcaf3"
      },
      "period": {
        "start": "2026-11-09T08:00:00.000+00:00",
        "end": "2026-11-09T10:15:00.000+00:00"
      }
    },
    "request": {
      "method": "PUT",
      "url": "Encounter/151fa7c3-6451-4f3f-838e-dee23f575fa8"
    }
  }, {
    "fullUrl": "https://madie.cms.gov/Condition/4eb07329-b4fd-48a0-a27e-e5e87436c6b6",
    "resource": {
      "resourceType": "Condition",
      "id": "4eb07329-b4fd-48a0-a27e-e5e87436c6b6",
      "meta": {
        "profile": [ "http://hl7.org/fhir/us/qicore/StructureDefinition/qicore-condition-encounter-diagnosis" ]
      },
      "clinicalStatus": {
        "coding": [ {
          "system": "http://terminology.hl7.org/CodeSystem/condition-clinical",
          "code": "active"
        } ]
      },
      "verificationStatus": {
        "coding": [ {
          "system": "http://terminology.hl7.org/CodeSystem/condition-ver-status",
          "code": "confirmed"
        } ]
      },
      "category": [ {
        "coding": [ {
          "system": "http://terminology.hl7.org/CodeSystem/condition-category",
          "code": "encounter-diagnosis",
          "display": "Encounter Diagnosis"
        } ]
      } ],
      "code": {
        "coding": [ {
          "system": "http://hl7.org/fhir/sid/icd-10-cm",
          "code": "S01.00XA"
        } ]
      },
      "subject": {
        "reference": "Patient/e6383b7c-aa91-42f7-8dc8-693a8c7dcaf3"
      },
      "encounter": {
        "reference": "Encounter/668ecfe4-3c34-4f02-a4e6-69fb7668612f"
      }
    },
    "request": {
      "method": "PUT",
      "url": "Condition/4eb07329-b4fd-48a0-a27e-e5e87436c6b6"
    }
  }, {
    "fullUrl": "https://madie.cms.gov/Condition/91dcf9b8-d20f-454b-9c25-e3e0922e484c",
    "resource": {
      "resourceType": "Condition",
      "id": "91dcf9b8-d20f-454b-9c25-e3e0922e484c",
      "meta": {
        "profile": [ "http://hl7.org/fhir/us/qicore/StructureDefinition/qicore-condition" ]
      },
      "clinicalStatus": {
        "coding": [ {
          "system": "http://terminology.hl7.org/CodeSystem/condition-clinical",
          "code": "active"
        } ]
      },
      "verificationStatus": {
        "coding": [ {
          "system": "http://terminology.hl7.org/CodeSystem/condition-ver-status",
          "code": "confirmed"
        } ]
      },
      "category": [ {
        "coding": [ {
          "system": "http://terminology.hl7.org/CodeSystem/condition-category",
          "code": "encounter-diagnosis",
          "display": "Encounter Diagnosis"
        } ]
      } ],
      "code": {
        "coding": [ {
          "system": "http://hl7.org/fhir/sid/icd-10-cm",
          "code": "M80.061A"
        } ]
      },
      "subject": {
        "reference": "Patient/e6383b7c-aa91-42f7-8dc8-693a8c7dcaf3"
      },
      "encounter": {
        "reference": "Encounter/668ecfe4-3c34-4f02-a4e6-69fb7668612f"
      }
    },
    "request": {
      "method": "PUT",
      "url": "Condition/91dcf9b8-d20f-454b-9c25-e3e0922e484c"
    }
  }, {
    "fullUrl": "https://madie.cms.gov/Condition/8cd1bbb8-55b9-46d7-bc39-00530a714006",
    "resource": {
      "resourceType": "Condition",
      "id": "8cd1bbb8-55b9-46d7-bc39-00530a714006",
      "meta": {
        "profile": [ "http://hl7.org/fhir/us/qicore/StructureDefinition/qicore-condition" ]
      },
      "clinicalStatus": {
        "coding": [ {
          "system": "http://terminology.hl7.org/CodeSystem/condition-clinical",
          "code": "active"
        } ]
      },
      "verificationStatus": {
        "coding": [ {
          "system": "http://terminology.hl7.org/CodeSystem/condition-ver-status",
          "code": "confirmed"
        } ]
      },
      "category": [ {
        "coding": [ {
          "system": "http://terminology.hl7.org/CodeSystem/condition-category",
          "code": "encounter-diagnosis",
          "display": "Encounter Diagnosis"
        } ]
      } ],
      "code": {
        "coding": [ {
          "system": "http://hl7.org/fhir/sid/icd-10-cm",
          "code": "W01.0XXA"
        } ]
      },
      "subject": {
        "reference": "Patient/e6383b7c-aa91-42f7-8dc8-693a8c7dcaf3"
      },
      "encounter": {
        "reference": "Encounter/668ecfe4-3c34-4f02-a4e6-69fb7668612f"
      }
    },
    "request": {
      "method": "PUT",
      "url": "Condition/8cd1bbb8-55b9-46d7-bc39-00530a714006"
    }
  }, {
    "fullUrl": "https://madie.cms.gov/Patient/e6383b7c-aa91-42f7-8dc8-693a8c7dcaf3",
    "resource": {
      "resourceType": "Patient",
      "id": "e6383b7c-aa91-42f7-8dc8-693a8c7dcaf3",
      "meta": {
        "profile": [ "http://hl7.org/fhir/us/qicore/StructureDefinition/qicore-patient" ]
      },
      "extension": [ {
        "url": "http://hl7.org/fhir/us/core/StructureDefinition/us-core-race",
        "extension": [ {
          "url": "ombCategory",
          "valueCoding": {
            "system": "urn:oid:2.16.840.1.113883.6.238",
            "code": "2028-9",
            "display": "Asian",
            "userSelected": true
          }
        }, {
          "url": "text",
          "valueString": "Asian"
        } ]
      }, {
        "url": "http://hl7.org/fhir/us/core/StructureDefinition/us-core-ethnicity",
        "extension": [ {
          "url": "ombCategory",
          "valueCoding": {
            "system": "urn:oid:2.16.840.1.113883.6.238",
            "code": "2186-5",
            "display": "Not Hispanic or Latino",
            "userSelected": true
          }
        }, {
          "url": "text",
          "valueString": "Not Hispanic or Latino"
        } ]
      } ],
      "identifier": [ {
        "type": {
          "coding": [ {
            "system": "http://terminology.hl7.org/CodeSystem/v2-0203",
            "code": "MR"
          } ]
        },
        "system": "https://bonnie-fhir.healthit.gov/",
        "value": "61152a3b98086b7a79cbd7c1"
      } ],
      "active": true,
      "name": [ {
        "use": "usual",
        "family": "NUMERPass",
        "given": [ "MajorInjuryPOAandModInjNPOA" ]
      } ],
      "gender": "male",
      "birthDate": "2000-09-09"
    },
    "request": {
      "method": "PUT",
      "url": "Patient/e6383b7c-aa91-42f7-8dc8-693a8c7dcaf3"
    }
  }, {
    "fullUrl": "https://madie.cms.gov/MeasureReport/ef1399cf-9851-4c23-966b-89b63d97e3a5",
    "resource": {
      "resourceType": "MeasureReport",
      "id": "ef1399cf-9851-4c23-966b-89b63d97e3a5",
      "meta": {
        "profile": [ "http://hl7.org/fhir/us/cqfmeasures/StructureDefinition/test-case-cqfm" ]
      },
      "contained": [ {
        "resourceType": "Parameters",
        "id": "3e27630f-1584-4238-8f87-43f2ac967067-parameters",
        "parameter": [ {
          "name": "subject",
          "valueString": "e6383b7c-aa91-42f7-8dc8-693a8c7dcaf3"
        } ]
      } ],
      "extension": [ {
        "url": "http://hl7.org/fhir/StructureDefinition/cqf-inputParameters",
        "valueReference": {
          "reference": "#3e27630f-1584-4238-8f87-43f2ac967067-parameters"
        }
      }, {
        "url": "http://hl7.org/fhir/us/cqfmeasures/StructureDefinition/cqfm-testCaseDescription",
        "valueMarkdown": "Encounter diag includes a major injury POA and another mod injury NPOA. Also includes a fall NPOA. Meets Numerator because having an injury POA should not remove them from potential of another injury NPOA from a fall NPOA that occurs during the enc."
      } ],
      "modifierExtension": [ {
        "url": "http://hl7.org/fhir/us/cqfmeasures/StructureDefinition/cqfm-isTestCase",
        "valueBoolean": true
      } ],
      "status": "complete",
      "type": "individual",
      "measure": "https://madie.cms.gov/Measure/CMS1017FHIRHHFI",
      "period": {
        "start": "2026-01-01",
        "end": "2026-12-31"
      },
      "group": [ {
        "id": "Group_1",
        "population": [ {
          "id": "InitialPopulation_1",
          "code": {
            "coding": [ {
              "system": "http://terminology.hl7.org/CodeSystem/measure-population",
              "code": "initial-population",
              "display": "Initial Population"
            } ]
          },
          "count": 1
        }, {
          "id": "Denominator_1",
          "code": {
            "coding": [ {
              "system": "http://terminology.hl7.org/CodeSystem/measure-population",
              "code": "denominator",
              "display": "Denominator"
            } ]
          },
          "count": 1
        }, {
          "id": "DenominatorExclusion_1",
          "code": {
            "coding": [ {
              "system": "http://terminology.hl7.org/CodeSystem/measure-population",
              "code": "denominator-exclusion",
              "display": "Denominator Exclusion"
            } ]
          },
          "count": 0
        }, {
          "id": "Numerator_1",
          "code": {
            "coding": [ {
              "system": "http://terminology.hl7.org/CodeSystem/measure-population",
              "code": "numerator",
              "display": "Numerator"
            } ]
          },
          "count": 0
        }, {
          "id": "NumeratorExclusion_1",
          "code": {
            "coding": [ {
              "system": "http://terminology.hl7.org/CodeSystem/measure-population",
              "code": "numerator-exclusion",
              "display": "Numerator Exclusion"
            } ]
          },
          "count": 0
        }, {
          "id": "MeasureObservation_1_1_1",
          "code": {
            "coding": [ {
              "system": "http://terminology.hl7.org/CodeSystem/measure-population",
              "code": "measure-observation",
              "display": "Measure Observation"
            } ]
          },
          "count": 4
        } ],
        "measureScore": {
          "value": 0.0
        }
      } ],
      "evaluatedResource": [ {
        "reference": "Encounter/668ecfe4-3c34-4f02-a4e6-69fb7668612f"
      }, {
        "reference": "Encounter/151fa7c3-6451-4f3f-838e-dee23f575fa8"
      }, {
        "reference": "Condition/4eb07329-b4fd-48a0-a27e-e5e87436c6b6"
      }, {
        "reference": "Condition/91dcf9b8-d20f-454b-9c25-e3e0922e484c"
      }, {
        "reference": "Condition/8cd1bbb8-55b9-46d7-bc39-00530a714006"
      }, {
        "reference": "Patient/e6383b7c-aa91-42f7-8dc8-693a8c7dcaf3"
      } ]
    },
    "request": {
      "method": "PUT",
      "url": "MeasureReport/ef1399cf-9851-4c23-966b-89b63d97e3a5"
    }
  } ]
}