{
  "resourceType": "Bundle",
  "id": "DENOMPass-RVOsteoporosisDxPOA",
  "type": "transaction",
  "entry": [ {
    "fullUrl": "https://madie.cms.gov/Claim/6b0bef0f-65fb-4ffc-9437-17d2f239f825",
    "resource": {
      "resourceType": "Claim",
      "id": "6b0bef0f-65fb-4ffc-9437-17d2f239f825",
      "meta": {
        "profile": [ "http://hl7.org/fhir/us/qicore/StructureDefinition/qicore-claim" ]
      },
      "status": "active",
      "type": {
        "coding": [ {
          "system": "http://terminology.hl7.org/CodeSystem/claim-type",
          "code": "professional",
          "display": "Professional"
        } ]
      },
      "use": "claim",
      "patient": {
        "reference": "Patient/d62aa527-2547-48a1-aece-d649b05c7d6e"
      },
      "created": "2026-12-12",
      "provider": {
        "reference": "Practitioner/practitioner-1"
      },
      "priority": {
        "coding": [ {
          "system": "http://terminology.hl7.org/CodeSystem/processpriority",
          "code": "normal"
        } ]
      },
      "diagnosis": [ {
        "sequence": 1,
        "diagnosisCodeableConcept": {
          "coding": [ {
            "system": "http://hl7.org/fhir/sid/icd-10-cm",
            "code": "M80.00XS"
          } ]
        },
        "onAdmission": {
          "coding": [ {
            "system": "https://www.cms.gov/Medicare/Medicare-Fee-for-Service-Payment/HospitalAcqCond/Coding",
            "code": "Y"
          } ]
        }
      } ],
      "insurance": [ {
        "sequence": 1,
        "focal": true,
        "coverage": {
          "reference": "Coverage/coverage-1"
        }
      } ],
      "item": [ {
        "sequence": 1,
        "diagnosisSequence": [ 1, 2 ],
        "productOrService": {
          "coding": [ {
            "system": "http://terminology.hl7.org/CodeSystem/ex-USCLS",
            "code": "1101"
          } ]
        },
        "encounter": [ {
          "reference": "Encounter/4a07ba1a-8dc5-4be0-b51a-f05d2d8db33d"
        } ]
      } ]
    },
    "request": {
      "method": "PUT",
      "url": "Claim/6b0bef0f-65fb-4ffc-9437-17d2f239f825"
    }
  }, {
    "fullUrl": "https://madie.cms.gov/Patient/d62aa527-2547-48a1-aece-d649b05c7d6e",
    "resource": {
      "resourceType": "Patient",
      "id": "d62aa527-2547-48a1-aece-d649b05c7d6e",
      "meta": {
        "profile": [ "http://hl7.org/fhir/us/qicore/StructureDefinition/qicore-patient" ]
      },
      "extension": [ {
        "url": "http://hl7.org/fhir/us/core/StructureDefinition/us-core-race",
        "extension": [ {
          "url": "ombCategory",
          "valueCoding": {
            "system": "urn:oid:2.16.840.1.113883.6.238",
            "code": "1002-5",
            "display": "American Indian or Alaska Native",
            "userSelected": true
          }
        }, {
          "url": "text",
          "valueString": "American Indian or Alaska Native"
        } ]
      }, {
        "url": "http://hl7.org/fhir/us/core/StructureDefinition/us-core-ethnicity",
        "extension": [ {
          "url": "ombCategory",
          "valueCoding": {
            "system": "urn:oid:2.16.840.1.113883.6.238",
            "code": "2135-2",
            "display": "Hispanic or Latino",
            "userSelected": true
          }
        }, {
          "url": "text",
          "valueString": "Hispanic or Latino"
        } ]
      } ],
      "identifier": [ {
        "type": {
          "coding": [ {
            "system": "http://terminology.hl7.org/CodeSystem/v2-0203",
            "code": "MR"
          } ]
        },
        "system": "https://bonnie-fhir.healthit.gov/",
        "value": "61152a3b98086b7a79cbd7c1"
      } ],
      "active": true,
      "name": [ {
        "use": "usual",
        "family": "DENOMPass",
        "given": [ "RVDeliriumDxPOA" ]
      } ],
      "gender": "female",
      "birthDate": "1964-12-11"
    },
    "request": {
      "method": "PUT",
      "url": "Patient/d62aa527-2547-48a1-aece-d649b05c7d6e"
    }
  }, {
    "fullUrl": "https://madie.cms.gov/Encounter/4a07ba1a-8dc5-4be0-b51a-f05d2d8db33d",
    "resource": {
      "resourceType": "Encounter",
      "id": "4a07ba1a-8dc5-4be0-b51a-f05d2d8db33d",
      "meta": {
        "profile": [ "http://hl7.org/fhir/us/qicore/StructureDefinition/qicore-encounter" ]
      },
      "status": "finished",
      "class": {
        "system": "http://terminology.hl7.org/CodeSystem/v3-ActCode",
        "code": "IMP",
        "display": "inpatient encounter"
      },
      "type": [ {
        "coding": [ {
          "system": "http://snomed.info/sct",
          "code": "183452005",
          "display": "Emergency hospital admission"
        } ]
      } ],
      "subject": {
        "reference": "Patient/d62aa527-2547-48a1-aece-d649b05c7d6e"
      },
      "period": {
        "start": "2026-11-12T08:00:00.000+00:00",
        "end": "2026-11-18T08:01:00.000+00:00"
      },
      "length": {
        "value": 6,
        "unit": "days"
      }
    },
    "request": {
      "method": "PUT",
      "url": "Encounter/4a07ba1a-8dc5-4be0-b51a-f05d2d8db33d"
    }
  }, {
    "fullUrl": "https://madie.cms.gov/Practitioner/88c8791e-ea0f-41dc-92ff-f2b9be472589",
    "resource": {
      "resourceType": "Practitioner",
      "id": "88c8791e-ea0f-41dc-92ff-f2b9be472589",
      "identifier": [ {
        "system": "http://www.cms.gov/identifiers/pracitioners",
        "value": "P12345"
      } ],
      "name": [ {
        "use": "official",
        "family": "Smith",
        "given": [ "John" ]
      } ],
      "qualification": [ {
        "identifier": [ {
          "system": "http://hl7.org/fhir/sid/us-npi",
          "value": "1234567890"
        } ],
        "code": {
          "coding": [ {
            "system": "http://terminology.hl7.org/CodeSystem/v2-0203",
            "code": "MD",
            "display": "Medical License number"
          } ]
        }
      } ]
    },
    "request": {
      "method": "PUT",
      "url": "Practitioner/88c8791e-ea0f-41dc-92ff-f2b9be472589"
    }
  }, {
    "fullUrl": "https://madie.cms.gov/Coverage/76c8dd60-c0a5-47cb-855d-a42fd3558cfc",
    "resource": {
      "resourceType": "Coverage",
      "id": "76c8dd60-c0a5-47cb-855d-a42fd3558cfc",
      "status": "active",
      "beneficiary": {
        "reference": "Patient/d62aa527-2547-48a1-aece-d649b05c7d6e"
      },
      "payor": [ {
        "reference": "Organization/c249ef1e-f0ad-4727-8858-5e1fc5e760b3"
      } ]
    },
    "request": {
      "method": "PUT",
      "url": "Coverage/76c8dd60-c0a5-47cb-855d-a42fd3558cfc"
    }
  }, {
    "fullUrl": "https://madie.cms.gov/Organization/c249ef1e-f0ad-4727-8858-5e1fc5e760b3",
    "resource": {
      "resourceType": "Organization",
      "id": "c249ef1e-f0ad-4727-8858-5e1fc5e760b3",
      "identifier": [ {
        "system": "http://cms.gov/insurance-ids",
        "value": "AET12345"
      } ],
      "type": [ {
        "coding": [ {
          "system": "http://terminology.hl7.org/CodeSystem/organization-type",
          "code": "prov",
          "display": "Healthcare Provider"
        } ]
      } ],
      "name": "Aetna Insurance",
      "telecom": [ {
        "system": "phone",
        "value": "+1-800-123-4567"
      } ],
      "address": [ {
        "line": [ "123 Main Street" ],
        "city": "Cityville",
        "state": "CA",
        "postalCode": "12345",
        "country": "USA"
      } ]
    },
    "request": {
      "method": "PUT",
      "url": "Organization/c249ef1e-f0ad-4727-8858-5e1fc5e760b3"
    }
  }, {
    "fullUrl": "https://madie.cms.gov/MeasureReport/39d1fc7b-f8a6-43dc-a9dd-523f3530d15f",
    "resource": {
      "resourceType": "MeasureReport",
      "id": "39d1fc7b-f8a6-43dc-a9dd-523f3530d15f",
      "meta": {
        "profile": [ "http://hl7.org/fhir/us/cqfmeasures/StructureDefinition/test-case-cqfm" ]
      },
      "contained": [ {
        "resourceType": "Parameters",
        "id": "1751c210-e029-4f2e-a649-af56654a649b-parameters",
        "parameter": [ {
          "name": "subject",
          "valueString": "d62aa527-2547-48a1-aece-d649b05c7d6e"
        } ]
      } ],
      "extension": [ {
        "url": "http://hl7.org/fhir/StructureDefinition/cqf-inputParameters",
        "valueReference": {
          "reference": "#1751c210-e029-4f2e-a649-af56654a649b-parameters"
        }
      }, {
        "url": "http://hl7.org/fhir/us/cqfmeasures/StructureDefinition/cqfm-testCaseDescription",
        "valueMarkdown": "Encounter with Osteoporosis dx POA = Y. Meets RV"
      } ],
      "modifierExtension": [ {
        "url": "http://hl7.org/fhir/us/cqfmeasures/StructureDefinition/cqfm-isTestCase",
        "valueBoolean": true
      } ],
      "status": "complete",
      "type": "individual",
      "measure": "https://madie.cms.gov/Measure/CMS1017FHIRHHFI",
      "period": {
        "start": "2026-01-01",
        "end": "2026-12-31"
      },
      "group": [ {
        "id": "Group_1",
        "population": [ {
          "id": "InitialPopulation_1",
          "code": {
            "coding": [ {
              "system": "http://terminology.hl7.org/CodeSystem/measure-population",
              "code": "initial-population",
              "display": "Initial Population"
            } ]
          },
          "count": 1
        }, {
          "id": "Denominator_1",
          "code": {
            "coding": [ {
              "system": "http://terminology.hl7.org/CodeSystem/measure-population",
              "code": "denominator",
              "display": "Denominator"
            } ]
          },
          "count": 1
        }, {
          "id": "DenominatorExclusion_1",
          "code": {
            "coding": [ {
              "system": "http://terminology.hl7.org/CodeSystem/measure-population",
              "code": "denominator-exclusion",
              "display": "Denominator Exclusion"
            } ]
          },
          "count": 0
        }, {
          "id": "Numerator_1",
          "code": {
            "coding": [ {
              "system": "http://terminology.hl7.org/CodeSystem/measure-population",
              "code": "numerator",
              "display": "Numerator"
            } ]
          },
          "count": 0
        }, {
          "id": "NumeratorExclusion_1",
          "code": {
            "coding": [ {
              "system": "http://terminology.hl7.org/CodeSystem/measure-population",
              "code": "numerator-exclusion",
              "display": "Numerator Exclusion"
            } ]
          },
          "count": 0
        }, {
          "id": "MeasureObservation_1_1_1",
          "code": {
            "coding": [ {
              "system": "http://terminology.hl7.org/CodeSystem/measure-population",
              "code": "measure-observation",
              "display": "Measure Observation"
            } ]
          },
          "count": 6
        } ],
        "measureScore": {
          "value": 0.0
        }
      } ],
      "evaluatedResource": [ {
        "reference": "Claim/6b0bef0f-65fb-4ffc-9437-17d2f239f825"
      }, {
        "reference": "Patient/d62aa527-2547-48a1-aece-d649b05c7d6e"
      }, {
        "reference": "Encounter/4a07ba1a-8dc5-4be0-b51a-f05d2d8db33d"
      }, {
        "reference": "Practitioner/88c8791e-ea0f-41dc-92ff-f2b9be472589"
      }, {
        "reference": "Coverage/76c8dd60-c0a5-47cb-855d-a42fd3558cfc"
      }, {
        "reference": "Organization/c249ef1e-f0ad-4727-8858-5e1fc5e760b3"
      } ]
    },
    "request": {
      "method": "PUT",
      "url": "MeasureReport/39d1fc7b-f8a6-43dc-a9dd-523f3530d15f"
    }
  } ]
}