{
  "resourceType": "Bundle",
  "id": "DENOMPass-RVLeukemiaDxPOA",
  "type": "transaction",
  "entry": [ {
    "fullUrl": "https://madie.cms.gov/Claim/28e382fa-ad34-4c59-aa19-86608e2c3ddc",
    "resource": {
      "resourceType": "Claim",
      "id": "28e382fa-ad34-4c59-aa19-86608e2c3ddc",
      "meta": {
        "profile": [ "http://hl7.org/fhir/us/qicore/StructureDefinition/qicore-claim" ]
      },
      "status": "active",
      "type": {
        "coding": [ {
          "system": "http://terminology.hl7.org/CodeSystem/claim-type",
          "code": "professional",
          "display": "Professional"
        } ]
      },
      "use": "claim",
      "patient": {
        "reference": "Patient/365ed821-88d1-4459-9d32-dd4fa6426335"
      },
      "created": "2026-12-12",
      "provider": {
        "reference": "Practitioner/561dccc2-666f-4200-8295-1fdde5a53e77"
      },
      "priority": {
        "coding": [ {
          "system": "http://terminology.hl7.org/CodeSystem/processpriority",
          "code": "normal"
        } ]
      },
      "diagnosis": [ {
        "sequence": 1,
        "diagnosisCodeableConcept": {
          "coding": [ {
            "system": "http://hl7.org/fhir/sid/icd-10-cm",
            "code": "C81.00"
          } ]
        },
        "onAdmission": {
          "coding": [ {
            "system": "https://www.cms.gov/Medicare/Medicare-Fee-for-Service-Payment/HospitalAcqCond/Coding",
            "code": "Y"
          } ]
        }
      } ],
      "insurance": [ {
        "sequence": 1,
        "focal": true,
        "coverage": {
          "reference": "Coverage/c2643a17-f6ef-4496-b3f5-dec34c0efa2b"
        }
      } ],
      "item": [ {
        "sequence": 1,
        "diagnosisSequence": [ 1, 2 ],
        "productOrService": {
          "coding": [ {
            "system": "http://terminology.hl7.org/CodeSystem/ex-USCLS",
            "code": "1101"
          } ]
        },
        "encounter": [ {
          "reference": "Encounter/0114c908-f17c-4c47-83a3-7b411eb49135"
        } ]
      } ]
    },
    "request": {
      "method": "PUT",
      "url": "Claim/28e382fa-ad34-4c59-aa19-86608e2c3ddc"
    }
  }, {
    "fullUrl": "https://madie.cms.gov/Patient/365ed821-88d1-4459-9d32-dd4fa6426335",
    "resource": {
      "resourceType": "Patient",
      "id": "365ed821-88d1-4459-9d32-dd4fa6426335",
      "meta": {
        "profile": [ "http://hl7.org/fhir/us/qicore/StructureDefinition/qicore-patient" ]
      },
      "extension": [ {
        "url": "http://hl7.org/fhir/us/core/StructureDefinition/us-core-race",
        "extension": [ {
          "url": "ombCategory",
          "valueCoding": {
            "system": "urn:oid:2.16.840.1.113883.6.238",
            "code": "1002-5",
            "display": "American Indian or Alaska Native",
            "userSelected": true
          }
        }, {
          "url": "text",
          "valueString": "American Indian or Alaska Native"
        } ]
      }, {
        "url": "http://hl7.org/fhir/us/core/StructureDefinition/us-core-ethnicity",
        "extension": [ {
          "url": "ombCategory",
          "valueCoding": {
            "system": "urn:oid:2.16.840.1.113883.6.238",
            "code": "2135-2",
            "display": "Hispanic or Latino",
            "userSelected": true
          }
        }, {
          "url": "text",
          "valueString": "Hispanic or Latino"
        } ]
      } ],
      "identifier": [ {
        "type": {
          "coding": [ {
            "system": "http://terminology.hl7.org/CodeSystem/v2-0203",
            "code": "MR"
          } ]
        },
        "system": "https://bonnie-fhir.healthit.gov/",
        "value": "61152a3b98086b7a79cbd7c1"
      } ],
      "active": true,
      "name": [ {
        "use": "usual",
        "family": "DENOMPass",
        "given": [ "RVDeliriumDxPOA" ]
      } ],
      "gender": "female",
      "birthDate": "1964-12-11"
    },
    "request": {
      "method": "PUT",
      "url": "Patient/365ed821-88d1-4459-9d32-dd4fa6426335"
    }
  }, {
    "fullUrl": "https://madie.cms.gov/Encounter/0114c908-f17c-4c47-83a3-7b411eb49135",
    "resource": {
      "resourceType": "Encounter",
      "id": "0114c908-f17c-4c47-83a3-7b411eb49135",
      "meta": {
        "profile": [ "http://hl7.org/fhir/us/qicore/StructureDefinition/qicore-encounter" ]
      },
      "status": "finished",
      "class": {
        "system": "http://terminology.hl7.org/CodeSystem/v3-ActCode",
        "code": "IMP",
        "display": "inpatient encounter"
      },
      "type": [ {
        "coding": [ {
          "system": "http://snomed.info/sct",
          "code": "183452005",
          "display": "Emergency hospital admission"
        } ]
      } ],
      "subject": {
        "reference": "Patient/365ed821-88d1-4459-9d32-dd4fa6426335"
      },
      "period": {
        "start": "2026-11-12T08:00:00.000+00:00",
        "end": "2026-11-18T08:01:00.000+00:00"
      },
      "length": {
        "value": 6,
        "unit": "days"
      }
    },
    "request": {
      "method": "PUT",
      "url": "Encounter/0114c908-f17c-4c47-83a3-7b411eb49135"
    }
  }, {
    "fullUrl": "https://madie.cms.gov/Practitioner/561dccc2-666f-4200-8295-1fdde5a53e77",
    "resource": {
      "resourceType": "Practitioner",
      "id": "561dccc2-666f-4200-8295-1fdde5a53e77",
      "identifier": [ {
        "system": "http://www.cms.gov/identifiers/pracitioners",
        "value": "P12345"
      } ],
      "name": [ {
        "use": "official",
        "family": "Smith",
        "given": [ "John" ]
      } ],
      "qualification": [ {
        "identifier": [ {
          "system": "http://hl7.org/fhir/sid/us-npi",
          "value": "1234567890"
        } ],
        "code": {
          "coding": [ {
            "system": "http://terminology.hl7.org/CodeSystem/v2-0203",
            "code": "MD",
            "display": "Medical License number"
          } ]
        }
      } ]
    },
    "request": {
      "method": "PUT",
      "url": "Practitioner/561dccc2-666f-4200-8295-1fdde5a53e77"
    }
  }, {
    "fullUrl": "https://madie.cms.gov/Coverage/c2643a17-f6ef-4496-b3f5-dec34c0efa2b",
    "resource": {
      "resourceType": "Coverage",
      "id": "c2643a17-f6ef-4496-b3f5-dec34c0efa2b",
      "status": "active",
      "beneficiary": {
        "reference": "Patient/365ed821-88d1-4459-9d32-dd4fa6426335"
      },
      "payor": [ {
        "reference": "Organization/f5ff5a4d-e959-4aa1-a3a4-0ad9afc3869e"
      } ]
    },
    "request": {
      "method": "PUT",
      "url": "Coverage/c2643a17-f6ef-4496-b3f5-dec34c0efa2b"
    }
  }, {
    "fullUrl": "https://madie.cms.gov/Organization/f5ff5a4d-e959-4aa1-a3a4-0ad9afc3869e",
    "resource": {
      "resourceType": "Organization",
      "id": "f5ff5a4d-e959-4aa1-a3a4-0ad9afc3869e",
      "identifier": [ {
        "system": "http://cms.gov/insurance-ids",
        "value": "AET12345"
      } ],
      "type": [ {
        "coding": [ {
          "system": "http://terminology.hl7.org/CodeSystem/organization-type",
          "code": "prov",
          "display": "Healthcare Provider"
        } ]
      } ],
      "name": "Aetna Insurance",
      "telecom": [ {
        "system": "phone",
        "value": "+1-800-123-4567"
      } ],
      "address": [ {
        "line": [ "123 Main Street" ],
        "city": "Cityville",
        "state": "CA",
        "postalCode": "12345",
        "country": "USA"
      } ]
    },
    "request": {
      "method": "PUT",
      "url": "Organization/f5ff5a4d-e959-4aa1-a3a4-0ad9afc3869e"
    }
  }, {
    "fullUrl": "https://madie.cms.gov/MeasureReport/1cb47bcb-8c13-4da1-96c1-e7d1acdceca4",
    "resource": {
      "resourceType": "MeasureReport",
      "id": "1cb47bcb-8c13-4da1-96c1-e7d1acdceca4",
      "meta": {
        "profile": [ "http://hl7.org/fhir/us/cqfmeasures/StructureDefinition/test-case-cqfm" ]
      },
      "contained": [ {
        "resourceType": "Parameters",
        "id": "7b036bba-b1d6-4237-b823-c0f4563dc8ad-parameters",
        "parameter": [ {
          "name": "subject",
          "valueString": "365ed821-88d1-4459-9d32-dd4fa6426335"
        } ]
      } ],
      "extension": [ {
        "url": "http://hl7.org/fhir/StructureDefinition/cqf-inputParameters",
        "valueReference": {
          "reference": "#7b036bba-b1d6-4237-b823-c0f4563dc8ad-parameters"
        }
      }, {
        "url": "http://hl7.org/fhir/us/cqfmeasures/StructureDefinition/cqfm-testCaseDescription",
        "valueMarkdown": "Encounter with Leukemia dx POA = Y. Meets RV"
      } ],
      "modifierExtension": [ {
        "url": "http://hl7.org/fhir/us/cqfmeasures/StructureDefinition/cqfm-isTestCase",
        "valueBoolean": true
      } ],
      "status": "complete",
      "type": "individual",
      "measure": "https://madie.cms.gov/Measure/CMS1017FHIRHHFI",
      "period": {
        "start": "2026-01-01",
        "end": "2026-12-31"
      },
      "group": [ {
        "id": "Group_1",
        "population": [ {
          "id": "InitialPopulation_1",
          "code": {
            "coding": [ {
              "system": "http://terminology.hl7.org/CodeSystem/measure-population",
              "code": "initial-population",
              "display": "Initial Population"
            } ]
          },
          "count": 1
        }, {
          "id": "Denominator_1",
          "code": {
            "coding": [ {
              "system": "http://terminology.hl7.org/CodeSystem/measure-population",
              "code": "denominator",
              "display": "Denominator"
            } ]
          },
          "count": 1
        }, {
          "id": "DenominatorExclusion_1",
          "code": {
            "coding": [ {
              "system": "http://terminology.hl7.org/CodeSystem/measure-population",
              "code": "denominator-exclusion",
              "display": "Denominator Exclusion"
            } ]
          },
          "count": 0
        }, {
          "id": "Numerator_1",
          "code": {
            "coding": [ {
              "system": "http://terminology.hl7.org/CodeSystem/measure-population",
              "code": "numerator",
              "display": "Numerator"
            } ]
          },
          "count": 0
        }, {
          "id": "NumeratorExclusion_1",
          "code": {
            "coding": [ {
              "system": "http://terminology.hl7.org/CodeSystem/measure-population",
              "code": "numerator-exclusion",
              "display": "Numerator Exclusion"
            } ]
          },
          "count": 0
        }, {
          "id": "MeasureObservation_1_1_1",
          "code": {
            "coding": [ {
              "system": "http://terminology.hl7.org/CodeSystem/measure-population",
              "code": "measure-observation",
              "display": "Measure Observation"
            } ]
          },
          "count": 6
        } ],
        "measureScore": {
          "value": 0.0
        }
      } ],
      "evaluatedResource": [ {
        "reference": "Claim/28e382fa-ad34-4c59-aa19-86608e2c3ddc"
      }, {
        "reference": "Patient/365ed821-88d1-4459-9d32-dd4fa6426335"
      }, {
        "reference": "Encounter/0114c908-f17c-4c47-83a3-7b411eb49135"
      }, {
        "reference": "Practitioner/561dccc2-666f-4200-8295-1fdde5a53e77"
      }, {
        "reference": "Coverage/c2643a17-f6ef-4496-b3f5-dec34c0efa2b"
      }, {
        "reference": "Organization/f5ff5a4d-e959-4aa1-a3a4-0ad9afc3869e"
      } ]
    },
    "request": {
      "method": "PUT",
      "url": "MeasureReport/1cb47bcb-8c13-4da1-96c1-e7d1acdceca4"
    }
  } ]
}