{
  "resourceType": "Bundle",
  "id": "DENEXPass-FallPOAisW",
  "type": "transaction",
  "entry": [ {
    "fullUrl": "https://madie.cms.gov/Patient/951a2d40-7274-4820-bfa5-51d28cfd91ab",
    "resource": {
      "resourceType": "Patient",
      "id": "951a2d40-7274-4820-bfa5-51d28cfd91ab",
      "meta": {
        "profile": [ "http://hl7.org/fhir/us/qicore/StructureDefinition/qicore-patient" ]
      },
      "extension": [ {
        "url": "http://hl7.org/fhir/us/core/StructureDefinition/us-core-race",
        "extension": [ {
          "url": "ombCategory",
          "valueCoding": {
            "system": "urn:oid:2.16.840.1.113883.6.238",
            "code": "1002-5",
            "display": "American Indian or Alaska Native",
            "userSelected": true
          }
        }, {
          "url": "text",
          "valueString": "American Indian or Alaska Native"
        } ]
      }, {
        "url": "http://hl7.org/fhir/us/core/StructureDefinition/us-core-ethnicity",
        "extension": [ {
          "url": "ombCategory",
          "valueCoding": {
            "system": "urn:oid:2.16.840.1.113883.6.238",
            "code": "2135-2",
            "display": "Hispanic or Latino",
            "userSelected": true
          }
        }, {
          "url": "text",
          "valueString": "Hispanic or Latino"
        } ]
      } ],
      "identifier": [ {
        "type": {
          "coding": [ {
            "system": "http://terminology.hl7.org/CodeSystem/v2-0203",
            "code": "MR"
          } ]
        },
        "system": "https://bonnie-fhir.healthit.gov/",
        "value": "61152a3b98086b7a79cbd7c1"
      } ],
      "active": true,
      "name": [ {
        "use": "usual",
        "family": "DENEXPass",
        "given": [ "FallPOAisW" ]
      } ],
      "gender": "female",
      "birthDate": "1964-12-11"
    },
    "request": {
      "method": "PUT",
      "url": "Patient/951a2d40-7274-4820-bfa5-51d28cfd91ab"
    }
  }, {
    "fullUrl": "https://madie.cms.gov/Encounter/71828385-f8fb-4732-aba4-3df87cf20d7e",
    "resource": {
      "resourceType": "Encounter",
      "id": "71828385-f8fb-4732-aba4-3df87cf20d7e",
      "meta": {
        "profile": [ "http://hl7.org/fhir/us/qicore/StructureDefinition/qicore-encounter" ]
      },
      "status": "finished",
      "class": {
        "system": "http://terminology.hl7.org/CodeSystem/v3-ActCode",
        "code": "IMP",
        "display": "inpatient encounter"
      },
      "type": [ {
        "coding": [ {
          "system": "http://snomed.info/sct",
          "code": "4525004"
        } ]
      } ],
      "subject": {
        "reference": "Patient/951a2d40-7274-4820-bfa5-51d28cfd91ab"
      },
      "period": {
        "start": "2026-11-09T08:00:00.000+00:00",
        "end": "2026-11-09T10:15:00.000+00:00"
      }
    },
    "request": {
      "method": "PUT",
      "url": "Encounter/71828385-f8fb-4732-aba4-3df87cf20d7e"
    }
  }, {
    "fullUrl": "https://madie.cms.gov/Encounter/8eb36797-47b8-457f-92bc-1393936b8976",
    "resource": {
      "resourceType": "Encounter",
      "id": "8eb36797-47b8-457f-92bc-1393936b8976",
      "meta": {
        "profile": [ "http://hl7.org/fhir/us/qicore/StructureDefinition/qicore-encounter" ]
      },
      "status": "finished",
      "class": {
        "system": "http://terminology.hl7.org/CodeSystem/v3-ActCode",
        "code": "IMP",
        "display": "inpatient encounter"
      },
      "type": [ {
        "coding": [ {
          "system": "http://snomed.info/sct",
          "code": "183452005"
        } ]
      } ],
      "subject": {
        "reference": "Patient/951a2d40-7274-4820-bfa5-51d28cfd91ab"
      },
      "period": {
        "start": "2026-11-09T11:00:00.000+00:00",
        "end": "2026-11-12T08:15:00.000+00:00"
      }
    },
    "request": {
      "method": "PUT",
      "url": "Encounter/8eb36797-47b8-457f-92bc-1393936b8976"
    }
  }, {
    "fullUrl": "https://madie.cms.gov/Encounter/0b05f52f-dadb-41ec-927e-bd087564dc11",
    "resource": {
      "resourceType": "Encounter",
      "id": "0b05f52f-dadb-41ec-927e-bd087564dc11",
      "meta": {
        "profile": [ "http://hl7.org/fhir/us/qicore/StructureDefinition/qicore-encounter" ]
      },
      "status": "finished",
      "class": {
        "system": "http://terminology.hl7.org/CodeSystem/v3-ActCode",
        "code": "IMP",
        "display": "inpatient encounter"
      },
      "type": [ {
        "coding": [ {
          "system": "http://snomed.info/sct",
          "code": "448951000124107"
        } ]
      } ],
      "subject": {
        "reference": "Patient/951a2d40-7274-4820-bfa5-51d28cfd91ab"
      },
      "period": {
        "start": "2026-11-09T11:00:00.000+00:00",
        "end": "2026-11-09T22:15:00.000+00:00"
      },
      "reasonReference": [ {
        "reference": "Condition/e67697a7-df35-45f2-b6b5-ea3f5df98545"
      } ]
    },
    "request": {
      "method": "PUT",
      "url": "Encounter/0b05f52f-dadb-41ec-927e-bd087564dc11"
    }
  }, {
    "fullUrl": "https://madie.cms.gov/Condition/e67697a7-df35-45f2-b6b5-ea3f5df98545",
    "resource": {
      "resourceType": "Condition",
      "id": "e67697a7-df35-45f2-b6b5-ea3f5df98545",
      "meta": {
        "profile": [ "http://hl7.org/fhir/us/qicore/StructureDefinition/qicore-condition-encounter-diagnosis" ]
      },
      "clinicalStatus": {
        "coding": [ {
          "system": "http://terminology.hl7.org/CodeSystem/condition-clinical",
          "code": "active"
        } ]
      },
      "verificationStatus": {
        "coding": [ {
          "system": "http://terminology.hl7.org/CodeSystem/condition-ver-status",
          "code": "confirmed"
        } ]
      },
      "category": [ {
        "coding": [ {
          "system": "http://terminology.hl7.org/CodeSystem/condition-category",
          "code": "encounter-diagnosis",
          "display": "Encounter Diagnosis"
        } ]
      } ],
      "code": {
        "coding": [ {
          "system": "http://snomed.info/sct",
          "code": "56307009"
        } ]
      },
      "subject": {
        "reference": "Patient/951a2d40-7274-4820-bfa5-51d28cfd91ab"
      },
      "encounter": {
        "reference": "Encounter/8eb36797-47b8-457f-92bc-1393936b8976"
      }
    },
    "request": {
      "method": "PUT",
      "url": "Condition/e67697a7-df35-45f2-b6b5-ea3f5df98545"
    }
  }, {
    "fullUrl": "https://madie.cms.gov/Claim/a01a68e6-6b6e-4e22-a30f-9db1e933c56a",
    "resource": {
      "resourceType": "Claim",
      "id": "a01a68e6-6b6e-4e22-a30f-9db1e933c56a",
      "meta": {
        "profile": [ "http://hl7.org/fhir/us/qicore/StructureDefinition/qicore-claim" ]
      },
      "status": "active",
      "type": {
        "coding": [ {
          "system": "http://terminology.hl7.org/CodeSystem/claim-type",
          "code": "professional",
          "display": "Professional"
        } ]
      },
      "use": "claim",
      "patient": {
        "reference": "Patient/951a2d40-7274-4820-bfa5-51d28cfd91ab"
      },
      "created": "2026-11-10",
      "provider": {
        "reference": "Practitioner/5e573ddc-8bb2-4d38-beb3-143c8ea6f57a"
      },
      "priority": {
        "coding": [ {
          "system": "http://terminology.hl7.org/CodeSystem/processpriority",
          "code": "normal"
        } ]
      },
      "diagnosis": [ {
        "sequence": 1,
        "diagnosisCodeableConcept": {
          "coding": [ {
            "system": "http://snomed.info/sct",
            "code": "56307009"
          } ]
        },
        "onAdmission": {
          "coding": [ {
            "system": "https://www.cms.gov/Medicare/Medicare-Fee-for-Service-Payment/HospitalAcqCond/Coding",
            "code": "W"
          } ]
        }
      } ],
      "insurance": [ {
        "sequence": 1,
        "focal": true,
        "coverage": {
          "reference": "Coverage/9ff79c2c-b78b-4c4a-97df-23c4dd7e046c"
        }
      } ],
      "item": [ {
        "sequence": 1,
        "diagnosisSequence": [ 1, 2 ],
        "productOrService": {
          "coding": [ {
            "system": "http://terminology.hl7.org/CodeSystem/ex-USCLS",
            "code": "1101"
          } ]
        },
        "encounter": [ {
          "reference": "Encounter/8eb36797-47b8-457f-92bc-1393936b8976"
        } ]
      } ]
    },
    "request": {
      "method": "PUT",
      "url": "Claim/a01a68e6-6b6e-4e22-a30f-9db1e933c56a"
    }
  }, {
    "fullUrl": "https://madie.cms.gov/Practitioner/5e573ddc-8bb2-4d38-beb3-143c8ea6f57a",
    "resource": {
      "resourceType": "Practitioner",
      "id": "5e573ddc-8bb2-4d38-beb3-143c8ea6f57a",
      "meta": {
        "profile": [ "http://hl7.org/fhir/us/qicore/StructureDefinition/qicore-practitioner" ]
      },
      "identifier": [ {
        "system": "http://www.cms.gov/identifiers/pracitioners",
        "value": "P12345"
      } ],
      "name": [ {
        "use": "official",
        "family": "Smith",
        "given": [ "John" ]
      } ],
      "qualification": [ {
        "identifier": [ {
          "system": "http://hl7.org/fhir/sid/us-npi",
          "value": "1234567890"
        } ],
        "code": {
          "coding": [ {
            "system": "http://terminology.hl7.org/CodeSystem/v2-0203",
            "code": "MD",
            "display": "Medical License number"
          } ]
        }
      } ]
    },
    "request": {
      "method": "PUT",
      "url": "Practitioner/5e573ddc-8bb2-4d38-beb3-143c8ea6f57a"
    }
  }, {
    "fullUrl": "https://madie.cms.gov/Coverage/9ff79c2c-b78b-4c4a-97df-23c4dd7e046c",
    "resource": {
      "resourceType": "Coverage",
      "id": "9ff79c2c-b78b-4c4a-97df-23c4dd7e046c",
      "meta": {
        "profile": [ "http://hl7.org/fhir/us/qicore/StructureDefinition/qicore-coverage" ]
      },
      "identifier": [ {
        "use": "official",
        "type": {
          "coding": [ {
            "system": "http://terminology.hl7.org/CodeSystem/v2-0203",
            "code": "MB"
          } ]
        },
        "system": "http://insuranceNumber.org/",
        "value": "123456789"
      } ],
      "status": "active",
      "beneficiary": {
        "reference": "Patient/951a2d40-7274-4820-bfa5-51d28cfd91ab"
      },
      "relationship": {
        "coding": [ {
          "system": "http://terminology.hl7.org/CodeSystem/subscriber-relationship",
          "code": "self",
          "display": "Self"
        } ]
      },
      "payor": [ {
        "reference": "Organization/583466dd-7660-4216-bd6f-b0cab02ad5de"
      } ]
    },
    "request": {
      "method": "PUT",
      "url": "Coverage/9ff79c2c-b78b-4c4a-97df-23c4dd7e046c"
    }
  }, {
    "fullUrl": "https://madie.cms.gov/Organization/583466dd-7660-4216-bd6f-b0cab02ad5de",
    "resource": {
      "resourceType": "Organization",
      "id": "583466dd-7660-4216-bd6f-b0cab02ad5de",
      "meta": {
        "profile": [ "http://hl7.org/fhir/us/qicore/StructureDefinition/qicore-organization" ]
      },
      "identifier": [ {
        "system": "http://cms.gov/insurance-ids",
        "value": "AET12345"
      } ],
      "active": true,
      "type": [ {
        "coding": [ {
          "system": "http://terminology.hl7.org/CodeSystem/organization-type",
          "code": "prov",
          "display": "Healthcare Provider"
        } ]
      } ],
      "name": "Aetna Insurance",
      "telecom": [ {
        "system": "phone",
        "value": "+1-800-123-4567"
      } ],
      "address": [ {
        "line": [ "123 Main Street" ],
        "city": "Cityville",
        "state": "CA",
        "postalCode": "12345",
        "country": "USA"
      } ]
    },
    "request": {
      "method": "PUT",
      "url": "Organization/583466dd-7660-4216-bd6f-b0cab02ad5de"
    }
  }, {
    "fullUrl": "https://madie.cms.gov/MeasureReport/d2266042-50b4-4d49-ac17-4c2fa5de847d",
    "resource": {
      "resourceType": "MeasureReport",
      "id": "d2266042-50b4-4d49-ac17-4c2fa5de847d",
      "meta": {
        "profile": [ "http://hl7.org/fhir/us/cqfmeasures/StructureDefinition/test-case-cqfm" ]
      },
      "contained": [ {
        "resourceType": "Parameters",
        "id": "9904a4b0-ab87-452f-8cc6-a82b20f95887-parameters",
        "parameter": [ {
          "name": "subject",
          "valueString": "951a2d40-7274-4820-bfa5-51d28cfd91ab"
        } ]
      } ],
      "extension": [ {
        "url": "http://hl7.org/fhir/StructureDefinition/cqf-inputParameters",
        "valueReference": {
          "reference": "#9904a4b0-ab87-452f-8cc6-a82b20f95887-parameters"
        }
      }, {
        "url": "http://hl7.org/fhir/us/cqfmeasures/StructureDefinition/cqfm-testCaseDescription",
        "valueMarkdown": "Encounter starts in ED, then Observation, then IP with a fall POA (ind = W). Denom excluded\n"
      } ],
      "modifierExtension": [ {
        "url": "http://hl7.org/fhir/us/cqfmeasures/StructureDefinition/cqfm-isTestCase",
        "valueBoolean": true
      } ],
      "status": "complete",
      "type": "individual",
      "measure": "https://madie.cms.gov/Measure/CMS1017FHIRHHFI",
      "period": {
        "start": "2026-01-01",
        "end": "2026-12-31"
      },
      "group": [ {
        "id": "Group_1",
        "population": [ {
          "id": "InitialPopulation_1",
          "code": {
            "coding": [ {
              "system": "http://terminology.hl7.org/CodeSystem/measure-population",
              "code": "initial-population",
              "display": "Initial Population"
            } ]
          },
          "count": 1
        }, {
          "id": "Denominator_1",
          "code": {
            "coding": [ {
              "system": "http://terminology.hl7.org/CodeSystem/measure-population",
              "code": "denominator",
              "display": "Denominator"
            } ]
          },
          "count": 1
        }, {
          "id": "DenominatorExclusion_1",
          "code": {
            "coding": [ {
              "system": "http://terminology.hl7.org/CodeSystem/measure-population",
              "code": "denominator-exclusion",
              "display": "Denominator Exclusion"
            } ]
          },
          "count": 1
        }, {
          "id": "Numerator_1",
          "code": {
            "coding": [ {
              "system": "http://terminology.hl7.org/CodeSystem/measure-population",
              "code": "numerator",
              "display": "Numerator"
            } ]
          },
          "count": 0
        }, {
          "id": "NumeratorExclusion_1",
          "code": {
            "coding": [ {
              "system": "http://terminology.hl7.org/CodeSystem/measure-population",
              "code": "numerator-exclusion",
              "display": "Numerator Exclusion"
            } ]
          },
          "count": 0
        } ],
        "measureScore": {
          "value": 0.0
        }
      } ],
      "evaluatedResource": [ {
        "reference": "Patient/951a2d40-7274-4820-bfa5-51d28cfd91ab"
      }, {
        "reference": "Encounter/71828385-f8fb-4732-aba4-3df87cf20d7e"
      }, {
        "reference": "Encounter/8eb36797-47b8-457f-92bc-1393936b8976"
      }, {
        "reference": "Encounter/0b05f52f-dadb-41ec-927e-bd087564dc11"
      }, {
        "reference": "Condition/e67697a7-df35-45f2-b6b5-ea3f5df98545"
      }, {
        "reference": "Claim/a01a68e6-6b6e-4e22-a30f-9db1e933c56a"
      }, {
        "reference": "Practitioner/5e573ddc-8bb2-4d38-beb3-143c8ea6f57a"
      }, {
        "reference": "Coverage/9ff79c2c-b78b-4c4a-97df-23c4dd7e046c"
      }, {
        "reference": "Organization/583466dd-7660-4216-bd6f-b0cab02ad5de"
      } ]
    },
    "request": {
      "method": "PUT",
      "url": "MeasureReport/d2266042-50b4-4d49-ac17-4c2fa5de847d"
    }
  } ]
}