{
  "resourceType": "Bundle",
  "id": "2Enc2FallsWithNullPOAInjury",
  "type": "transaction",
  "entry": [ {
    "fullUrl": "https://madie.cms.gov/Claim/4c1d6f52-7277-44f8-a6d9-6d5195513c1c",
    "resource": {
      "resourceType": "Claim",
      "id": "4c1d6f52-7277-44f8-a6d9-6d5195513c1c",
      "meta": {
        "profile": [ "http://hl7.org/fhir/us/qicore/StructureDefinition/qicore-claim" ]
      },
      "status": "active",
      "type": {
        "coding": [ {
          "system": "http://terminology.hl7.org/CodeSystem/claim-type",
          "code": "professional",
          "display": "Professional"
        } ]
      },
      "use": "claim",
      "patient": {
        "reference": "Patient/58079a8d-2808-4029-b1fb-67ab4a841aa9"
      },
      "created": "2026-12-12",
      "provider": {
        "reference": "Practitioner/practitioner-1"
      },
      "priority": {
        "coding": [ {
          "system": "http://terminology.hl7.org/CodeSystem/processpriority",
          "code": "normal"
        } ]
      },
      "diagnosis": [ {
        "sequence": 1,
        "diagnosisCodeableConcept": {
          "coding": [ {
            "system": "http://hl7.org/fhir/sid/icd-10-cm",
            "code": "W01.0XXA"
          } ]
        },
        "onAdmission": {
          "coding": [ {
            "system": "https://www.cms.gov/Medicare/Medicare-Fee-for-Service-Payment/HospitalAcqCond/Coding",
            "code": "N"
          } ]
        }
      } ],
      "insurance": [ {
        "sequence": 1,
        "focal": true,
        "coverage": {
          "reference": "Coverage/coverage-1"
        }
      } ],
      "item": [ {
        "sequence": 1,
        "diagnosisSequence": [ 1, 2 ],
        "productOrService": {
          "coding": [ {
            "system": "http://terminology.hl7.org/CodeSystem/ex-USCLS",
            "code": "1101"
          } ]
        },
        "encounter": [ {
          "reference": "Encounter/756bd249-2fec-4341-97cc-594ab2b7c7d2"
        } ]
      } ]
    },
    "request": {
      "method": "PUT",
      "url": "Claim/4c1d6f52-7277-44f8-a6d9-6d5195513c1c"
    }
  }, {
    "fullUrl": "https://madie.cms.gov/Claim/ac255e86-6641-4da2-a885-ee1cbd0a5b2e",
    "resource": {
      "resourceType": "Claim",
      "id": "ac255e86-6641-4da2-a885-ee1cbd0a5b2e",
      "meta": {
        "profile": [ "http://hl7.org/fhir/us/qicore/StructureDefinition/qicore-claim" ]
      },
      "status": "active",
      "type": {
        "coding": [ {
          "system": "http://terminology.hl7.org/CodeSystem/claim-type",
          "code": "professional",
          "display": "Professional"
        } ]
      },
      "use": "claim",
      "patient": {
        "reference": "Patient/58079a8d-2808-4029-b1fb-67ab4a841aa9"
      },
      "created": "2026-12-12",
      "provider": {
        "reference": "Practitioner/practitioner-1"
      },
      "priority": {
        "coding": [ {
          "system": "http://terminology.hl7.org/CodeSystem/processpriority",
          "code": "normal"
        } ]
      },
      "diagnosis": [ {
        "sequence": 2,
        "diagnosisCodeableConcept": {
          "coding": [ {
            "system": "http://hl7.org/fhir/sid/icd-10-cm",
            "code": "S01.309A"
          } ]
        }
      } ],
      "insurance": [ {
        "sequence": 1,
        "focal": true,
        "coverage": {
          "reference": "Coverage/coverage-1"
        }
      } ],
      "item": [ {
        "sequence": 1,
        "diagnosisSequence": [ 1, 2 ],
        "productOrService": {
          "coding": [ {
            "system": "http://terminology.hl7.org/CodeSystem/ex-USCLS",
            "code": "1101"
          } ]
        },
        "encounter": [ {
          "reference": "Encounter/756bd249-2fec-4341-97cc-594ab2b7c7d2"
        } ]
      } ]
    },
    "request": {
      "method": "PUT",
      "url": "Claim/ac255e86-6641-4da2-a885-ee1cbd0a5b2e"
    }
  }, {
    "fullUrl": "https://madie.cms.gov/Claim/be288502-d3cf-4cf3-af0c-25abe4f5c093",
    "resource": {
      "resourceType": "Claim",
      "id": "be288502-d3cf-4cf3-af0c-25abe4f5c093",
      "meta": {
        "profile": [ "http://hl7.org/fhir/us/qicore/StructureDefinition/qicore-claim" ]
      },
      "status": "active",
      "type": {
        "coding": [ {
          "system": "http://terminology.hl7.org/CodeSystem/claim-type",
          "code": "professional",
          "display": "Professional"
        } ]
      },
      "use": "claim",
      "patient": {
        "reference": "Patient/58079a8d-2808-4029-b1fb-67ab4a841aa9"
      },
      "created": "2026-12-12",
      "provider": {
        "reference": "Practitioner/practitioner-1"
      },
      "priority": {
        "coding": [ {
          "system": "http://terminology.hl7.org/CodeSystem/processpriority",
          "code": "normal"
        } ]
      },
      "diagnosis": [ {
        "sequence": 1,
        "diagnosisCodeableConcept": {
          "coding": [ {
            "system": "http://snomed.info/sct",
            "code": "14047009"
          } ]
        },
        "onAdmission": {
          "coding": [ {
            "system": "https://www.cms.gov/Medicare/Medicare-Fee-for-Service-Payment/HospitalAcqCond/Coding",
            "code": "N"
          } ]
        }
      } ],
      "insurance": [ {
        "sequence": 1,
        "focal": true,
        "coverage": {
          "reference": "Coverage/coverage-1"
        }
      } ],
      "item": [ {
        "sequence": 1,
        "diagnosisSequence": [ 1, 2 ],
        "productOrService": {
          "coding": [ {
            "system": "http://terminology.hl7.org/CodeSystem/ex-USCLS",
            "code": "1101"
          } ]
        },
        "encounter": [ {
          "reference": "Encounter/a3a46473-e780-4728-aac2-a86b49f324da"
        } ]
      } ]
    },
    "request": {
      "method": "PUT",
      "url": "Claim/be288502-d3cf-4cf3-af0c-25abe4f5c093"
    }
  }, {
    "fullUrl": "https://madie.cms.gov/Claim/1986380f-c78f-4ca3-b5b5-58aeadab916f",
    "resource": {
      "resourceType": "Claim",
      "id": "1986380f-c78f-4ca3-b5b5-58aeadab916f",
      "meta": {
        "profile": [ "http://hl7.org/fhir/us/qicore/StructureDefinition/qicore-claim" ]
      },
      "status": "active",
      "type": {
        "coding": [ {
          "system": "http://terminology.hl7.org/CodeSystem/claim-type",
          "code": "professional",
          "display": "Professional"
        } ]
      },
      "use": "claim",
      "patient": {
        "reference": "Patient/58079a8d-2808-4029-b1fb-67ab4a841aa9"
      },
      "created": "2026-12-12",
      "provider": {
        "reference": "Practitioner/practitioner-1"
      },
      "priority": {
        "coding": [ {
          "system": "http://terminology.hl7.org/CodeSystem/processpriority",
          "code": "normal"
        } ]
      },
      "diagnosis": [ {
        "sequence": 2,
        "diagnosisCodeableConcept": {
          "coding": [ {
            "system": "http://hl7.org/fhir/sid/icd-10-cm",
            "code": "M80.00XA"
          } ]
        }
      } ],
      "insurance": [ {
        "sequence": 1,
        "focal": true,
        "coverage": {
          "reference": "Coverage/coverage-1"
        }
      } ],
      "item": [ {
        "sequence": 1,
        "diagnosisSequence": [ 1, 2 ],
        "productOrService": {
          "coding": [ {
            "system": "http://terminology.hl7.org/CodeSystem/ex-USCLS",
            "code": "1101"
          } ]
        },
        "encounter": [ {
          "reference": "Encounter/a3a46473-e780-4728-aac2-a86b49f324da"
        } ]
      } ]
    },
    "request": {
      "method": "PUT",
      "url": "Claim/1986380f-c78f-4ca3-b5b5-58aeadab916f"
    }
  }, {
    "fullUrl": "https://madie.cms.gov/Encounter/a3a46473-e780-4728-aac2-a86b49f324da",
    "resource": {
      "resourceType": "Encounter",
      "id": "a3a46473-e780-4728-aac2-a86b49f324da",
      "meta": {
        "profile": [ "http://hl7.org/fhir/us/qicore/StructureDefinition/qicore-encounter" ]
      },
      "status": "finished",
      "class": {
        "system": "http://terminology.hl7.org/CodeSystem/v3-ActCode",
        "code": "IMP",
        "display": "inpatient encounter"
      },
      "type": [ {
        "coding": [ {
          "system": "http://snomed.info/sct",
          "code": "183452005"
        } ]
      } ],
      "subject": {
        "reference": "Patient/58079a8d-2808-4029-b1fb-67ab4a841aa9"
      },
      "period": {
        "start": "2026-12-08T08:00:00.000+00:00",
        "end": "2026-12-12T08:15:00.000+00:00"
      },
      "reasonCode": [ {
        "coding": [ {
          "system": "http://snomed.info/sct",
          "code": "14047009"
        } ]
      }, {
        "coding": [ {
          "system": "http://hl7.org/fhir/sid/icd-10-cm",
          "code": "M80.00XA"
        } ]
      } ]
    },
    "request": {
      "method": "PUT",
      "url": "Encounter/a3a46473-e780-4728-aac2-a86b49f324da"
    }
  }, {
    "fullUrl": "https://madie.cms.gov/Encounter/756bd249-2fec-4341-97cc-594ab2b7c7d2",
    "resource": {
      "resourceType": "Encounter",
      "id": "756bd249-2fec-4341-97cc-594ab2b7c7d2",
      "meta": {
        "profile": [ "http://hl7.org/fhir/us/qicore/StructureDefinition/qicore-encounter" ]
      },
      "status": "finished",
      "class": {
        "system": "http://terminology.hl7.org/CodeSystem/v3-ActCode",
        "code": "IMP",
        "display": "inpatient encounter"
      },
      "type": [ {
        "coding": [ {
          "system": "http://snomed.info/sct",
          "code": "183452005"
        } ]
      } ],
      "subject": {
        "reference": "Patient/58079a8d-2808-4029-b1fb-67ab4a841aa9"
      },
      "period": {
        "start": "2026-11-09T11:00:00.000+00:00",
        "end": "2026-11-12T08:15:00.000+00:00"
      }
    },
    "request": {
      "method": "PUT",
      "url": "Encounter/756bd249-2fec-4341-97cc-594ab2b7c7d2"
    }
  }, {
    "fullUrl": "https://madie.cms.gov/Encounter/93ff89a2-6631-4352-815f-af01c95a26cd",
    "resource": {
      "resourceType": "Encounter",
      "id": "93ff89a2-6631-4352-815f-af01c95a26cd",
      "meta": {
        "profile": [ "http://hl7.org/fhir/us/qicore/StructureDefinition/qicore-encounter" ]
      },
      "status": "finished",
      "class": {
        "system": "http://terminology.hl7.org/CodeSystem/v3-ActCode",
        "code": "IMP",
        "display": "inpatient encounter"
      },
      "type": [ {
        "coding": [ {
          "system": "http://snomed.info/sct",
          "code": "4525004"
        } ]
      } ],
      "subject": {
        "reference": "Patient/58079a8d-2808-4029-b1fb-67ab4a841aa9"
      },
      "period": {
        "start": "2026-11-09T08:00:00.000+00:00",
        "end": "2026-11-09T10:15:00.000+00:00"
      },
      "reasonCode": [ {
        "coding": [ {
          "system": "http://hl7.org/fhir/sid/icd-10-cm",
          "code": "W01.0XXA"
        } ]
      }, {
        "coding": [ {
          "system": "http://hl7.org/fhir/sid/icd-10-cm",
          "code": "S01.309A"
        } ]
      } ]
    },
    "request": {
      "method": "PUT",
      "url": "Encounter/93ff89a2-6631-4352-815f-af01c95a26cd"
    }
  }, {
    "fullUrl": "https://madie.cms.gov/Patient/58079a8d-2808-4029-b1fb-67ab4a841aa9",
    "resource": {
      "resourceType": "Patient",
      "id": "58079a8d-2808-4029-b1fb-67ab4a841aa9",
      "meta": {
        "profile": [ "http://hl7.org/fhir/us/qicore/StructureDefinition/qicore-patient" ]
      },
      "extension": [ {
        "url": "http://hl7.org/fhir/us/core/StructureDefinition/us-core-race",
        "extension": [ {
          "url": "ombCategory",
          "valueCoding": {
            "system": "urn:oid:2.16.840.1.113883.6.238",
            "code": "2054-5",
            "display": "Black or African American",
            "userSelected": true
          }
        }, {
          "url": "text",
          "valueString": "Black or African American"
        } ]
      }, {
        "url": "http://hl7.org/fhir/us/core/StructureDefinition/us-core-ethnicity",
        "extension": [ {
          "url": "ombCategory",
          "valueCoding": {
            "system": "urn:oid:2.16.840.1.113883.6.238",
            "code": "2186-5",
            "display": "Not Hispanic or Latino",
            "userSelected": true
          }
        }, {
          "url": "text",
          "valueString": "Not Hispanic or Latino"
        } ]
      } ],
      "identifier": [ {
        "type": {
          "coding": [ {
            "system": "http://terminology.hl7.org/CodeSystem/v2-0203",
            "code": "MR"
          } ]
        },
        "system": "https://bonnie-fhir.healthit.gov/",
        "value": "61152a3b98086b7a79cbd7c1"
      } ],
      "active": true,
      "name": [ {
        "use": "usual",
        "family": "NUMERPass",
        "given": [ "2Enc2FallsWithNullPOAInjury" ]
      } ],
      "gender": "male",
      "birthDate": "1964-12-11"
    },
    "request": {
      "method": "PUT",
      "url": "Patient/58079a8d-2808-4029-b1fb-67ab4a841aa9"
    }
  }, {
    "fullUrl": "https://madie.cms.gov/AdverseEvent/43ccccdb-0074-4426-912a-1ca507875a70",
    "resource": {
      "resourceType": "AdverseEvent",
      "id": "43ccccdb-0074-4426-912a-1ca507875a70",
      "meta": {
        "profile": [ "http://hl7.org/fhir/us/qicore/StructureDefinition/qicore-adverseevent" ]
      },
      "actuality": "actual",
      "event": {
        "coding": [ {
          "system": "http://hl7.org/fhir/sid/icd-10-cm",
          "code": "W01.0XXA"
        } ]
      },
      "subject": {
        "reference": "Patient/58079a8d-2808-4029-b1fb-67ab4a841aa9"
      },
      "date": "2026-12-09T08:00:00.000+00:00"
    },
    "request": {
      "method": "PUT",
      "url": "AdverseEvent/43ccccdb-0074-4426-912a-1ca507875a70"
    }
  }, {
    "fullUrl": "https://madie.cms.gov/AdverseEvent/3287aac6-d568-4272-821f-1883fdba7cda",
    "resource": {
      "resourceType": "AdverseEvent",
      "id": "3287aac6-d568-4272-821f-1883fdba7cda",
      "meta": {
        "profile": [ "http://hl7.org/fhir/us/qicore/StructureDefinition/qicore-adverseevent" ]
      },
      "actuality": "actual",
      "event": {
        "coding": [ {
          "system": "http://snomed.info/sct",
          "code": "14047009"
        } ]
      },
      "subject": {
        "reference": "Patient/58079a8d-2808-4029-b1fb-67ab4a841aa9"
      },
      "date": "2026-11-10T08:00:00.000+00:00"
    },
    "request": {
      "method": "PUT",
      "url": "AdverseEvent/3287aac6-d568-4272-821f-1883fdba7cda"
    }
  }, {
    "fullUrl": "https://madie.cms.gov/Practitioner/9769663b-c77e-4165-988f-a12d9e634ad6",
    "resource": {
      "resourceType": "Practitioner",
      "id": "9769663b-c77e-4165-988f-a12d9e634ad6",
      "identifier": [ {
        "system": "http://www.cms.gov/identifiers/pracitioners",
        "value": "P12345"
      } ],
      "name": [ {
        "use": "official",
        "family": "Smith",
        "given": [ "John" ]
      } ],
      "qualification": [ {
        "identifier": [ {
          "system": "http://hl7.org/fhir/sid/us-npi",
          "value": "1234567890"
        } ],
        "code": {
          "coding": [ {
            "system": "http://terminology.hl7.org/CodeSystem/v2-0203",
            "code": "MD",
            "display": "Medical License number"
          } ]
        }
      } ]
    },
    "request": {
      "method": "PUT",
      "url": "Practitioner/9769663b-c77e-4165-988f-a12d9e634ad6"
    }
  }, {
    "fullUrl": "https://madie.cms.gov/Coverage/612adfa2-affa-43ed-8d83-0d8f8da972cf",
    "resource": {
      "resourceType": "Coverage",
      "id": "612adfa2-affa-43ed-8d83-0d8f8da972cf",
      "status": "active",
      "beneficiary": {
        "reference": "Patient/58079a8d-2808-4029-b1fb-67ab4a841aa9"
      },
      "payor": [ {
        "reference": "Organization/a03f826f-e9bc-4c74-b7b4-0135be871056"
      } ]
    },
    "request": {
      "method": "PUT",
      "url": "Coverage/612adfa2-affa-43ed-8d83-0d8f8da972cf"
    }
  }, {
    "fullUrl": "https://madie.cms.gov/Organization/a03f826f-e9bc-4c74-b7b4-0135be871056",
    "resource": {
      "resourceType": "Organization",
      "id": "a03f826f-e9bc-4c74-b7b4-0135be871056",
      "identifier": [ {
        "system": "http://cms.gov/insurance-ids",
        "value": "AET12345"
      } ],
      "type": [ {
        "coding": [ {
          "system": "http://terminology.hl7.org/CodeSystem/organization-type",
          "code": "prov",
          "display": "Healthcare Provider"
        } ]
      } ],
      "name": "Aetna Insurance",
      "telecom": [ {
        "system": "phone",
        "value": "+1-800-123-4567"
      } ],
      "address": [ {
        "line": [ "123 Main Street" ],
        "city": "Cityville",
        "state": "CA",
        "postalCode": "12345",
        "country": "USA"
      } ]
    },
    "request": {
      "method": "PUT",
      "url": "Organization/a03f826f-e9bc-4c74-b7b4-0135be871056"
    }
  }, {
    "fullUrl": "https://madie.cms.gov/MeasureReport/c6b089d9-e7f8-473b-92a1-09eee197d045",
    "resource": {
      "resourceType": "MeasureReport",
      "id": "c6b089d9-e7f8-473b-92a1-09eee197d045",
      "meta": {
        "profile": [ "http://hl7.org/fhir/us/cqfmeasures/StructureDefinition/test-case-cqfm" ]
      },
      "contained": [ {
        "resourceType": "Parameters",
        "id": "ddf61989-2d58-4bfb-9d90-056fcf8aa2a0-parameters",
        "parameter": [ {
          "name": "subject",
          "valueString": "58079a8d-2808-4029-b1fb-67ab4a841aa9"
        } ]
      } ],
      "extension": [ {
        "url": "http://hl7.org/fhir/StructureDefinition/cqf-inputParameters",
        "valueReference": {
          "reference": "#ddf61989-2d58-4bfb-9d90-056fcf8aa2a0-parameters"
        }
      }, {
        "url": "http://hl7.org/fhir/us/cqfmeasures/StructureDefinition/cqfm-testCaseDescription",
        "valueMarkdown": "Patient fall + injury during 2 encounters. Both had Adverse Event Fall + Major or Mod Injury null POA"
      } ],
      "modifierExtension": [ {
        "url": "http://hl7.org/fhir/us/cqfmeasures/StructureDefinition/cqfm-isTestCase",
        "valueBoolean": true
      } ],
      "status": "complete",
      "type": "individual",
      "measure": "https://madie.cms.gov/Measure/CMS1017FHIRHHFI",
      "period": {
        "start": "2026-01-01",
        "end": "2026-12-31"
      },
      "group": [ {
        "id": "Group_1",
        "population": [ {
          "id": "InitialPopulation_1",
          "code": {
            "coding": [ {
              "system": "http://terminology.hl7.org/CodeSystem/measure-population",
              "code": "initial-population",
              "display": "Initial Population"
            } ]
          },
          "count": 2
        }, {
          "id": "Denominator_1",
          "code": {
            "coding": [ {
              "system": "http://terminology.hl7.org/CodeSystem/measure-population",
              "code": "denominator",
              "display": "Denominator"
            } ]
          },
          "count": 2
        }, {
          "id": "DenominatorExclusion_1",
          "code": {
            "coding": [ {
              "system": "http://terminology.hl7.org/CodeSystem/measure-population",
              "code": "denominator-exclusion",
              "display": "Denominator Exclusion"
            } ]
          },
          "count": 0
        }, {
          "id": "Numerator_1",
          "code": {
            "coding": [ {
              "system": "http://terminology.hl7.org/CodeSystem/measure-population",
              "code": "numerator",
              "display": "Numerator"
            } ]
          },
          "count": 2
        }, {
          "id": "NumeratorExclusion_1",
          "code": {
            "coding": [ {
              "system": "http://terminology.hl7.org/CodeSystem/measure-population",
              "code": "numerator-exclusion",
              "display": "Numerator Exclusion"
            } ]
          },
          "count": 0
        }, {
          "id": "MeasureObservation_1_1_1",
          "code": {
            "coding": [ {
              "system": "http://terminology.hl7.org/CodeSystem/measure-population",
              "code": "measure-observation",
              "display": "Measure Observation"
            } ]
          },
          "count": 4
        }, {
          "id": "MeasureObservation_1_1_2",
          "code": {
            "coding": [ {
              "system": "http://terminology.hl7.org/CodeSystem/measure-population",
              "code": "measure-observation",
              "display": "Measure Observation"
            } ]
          },
          "count": 3
        }, {
          "id": "MeasureObservation_1_2_1",
          "code": {
            "coding": [ {
              "system": "http://terminology.hl7.org/CodeSystem/measure-population",
              "code": "measure-observation",
              "display": "Measure Observation"
            } ]
          },
          "count": 1
        }, {
          "id": "MeasureObservation_1_2_2",
          "code": {
            "coding": [ {
              "system": "http://terminology.hl7.org/CodeSystem/measure-population",
              "code": "measure-observation",
              "display": "Measure Observation"
            } ]
          },
          "count": 1
        } ],
        "measureScore": {
          "value": 0.0
        }
      } ],
      "evaluatedResource": [ {
        "reference": "Claim/4c1d6f52-7277-44f8-a6d9-6d5195513c1c"
      }, {
        "reference": "Claim/ac255e86-6641-4da2-a885-ee1cbd0a5b2e"
      }, {
        "reference": "Claim/be288502-d3cf-4cf3-af0c-25abe4f5c093"
      }, {
        "reference": "Claim/1986380f-c78f-4ca3-b5b5-58aeadab916f"
      }, {
        "reference": "Encounter/a3a46473-e780-4728-aac2-a86b49f324da"
      }, {
        "reference": "Encounter/756bd249-2fec-4341-97cc-594ab2b7c7d2"
      }, {
        "reference": "Encounter/93ff89a2-6631-4352-815f-af01c95a26cd"
      }, {
        "reference": "Patient/58079a8d-2808-4029-b1fb-67ab4a841aa9"
      }, {
        "reference": "AdverseEvent/43ccccdb-0074-4426-912a-1ca507875a70"
      }, {
        "reference": "AdverseEvent/3287aac6-d568-4272-821f-1883fdba7cda"
      }, {
        "reference": "Practitioner/9769663b-c77e-4165-988f-a12d9e634ad6"
      }, {
        "reference": "Coverage/612adfa2-affa-43ed-8d83-0d8f8da972cf"
      }, {
        "reference": "Organization/a03f826f-e9bc-4c74-b7b4-0135be871056"
      } ]
    },
    "request": {
      "method": "PUT",
      "url": "MeasureReport/c6b089d9-e7f8-473b-92a1-09eee197d045"
    }
  } ]
}