{
  "resourceType": "Bundle",
  "id": "tests-NumerPass-RVwithDiureticsOrderAtAdmission-bundle",
  "type": "transaction",
  "entry": [ {
    "fullUrl": "https://madie.cms.gov/Encounter/abcceb67-ad3c-4750-827b-2f36774b9db8",
    "resource": {
      "resourceType": "Encounter",
      "id": "abcceb67-ad3c-4750-827b-2f36774b9db8",
      "meta": {
        "profile": [ "http://hl7.org/fhir/us/qicore/StructureDefinition/qicore-encounter" ]
      },
      "status": "finished",
      "class": {
        "system": "http://terminology.hl7.org/CodeSystem/v3-ActCode",
        "code": "IMP",
        "display": "inpatient encounter"
      },
      "type": [ {
        "coding": [ {
          "system": "http://snomed.info/sct",
          "code": "183452005"
        } ]
      } ],
      "subject": {
        "reference": "Patient/02d5c5f5-9487-42af-bb5e-dfc3aaeb70eb"
      },
      "period": {
        "start": "2026-10-19T08:30:00.000+00:00",
        "end": "2026-10-21T08:15:00.000+00:00"
      },
      "reasonCode": [ {
        "coding": [ {
          "system": "http://snomed.info/sct",
          "code": "14047009"
        } ]
      }, {
        "coding": [ {
          "system": "http://snomed.info/sct",
          "code": "64859006"
        } ]
      } ]
    },
    "request": {
      "method": "PUT",
      "url": "Encounter/abcceb67-ad3c-4750-827b-2f36774b9db8"
    }
  }, {
    "fullUrl": "https://madie.cms.gov/Encounter/f91876f3-1acd-400d-bc69-985ccc684be0",
    "resource": {
      "resourceType": "Encounter",
      "id": "f91876f3-1acd-400d-bc69-985ccc684be0",
      "meta": {
        "profile": [ "http://hl7.org/fhir/us/qicore/StructureDefinition/qicore-encounter" ]
      },
      "status": "finished",
      "class": {
        "system": "http://terminology.hl7.org/CodeSystem/v3-ActCode",
        "code": "EMER",
        "display": "emergency encounter"
      },
      "type": [ {
        "coding": [ {
          "system": "http://snomed.info/sct",
          "code": "4525004"
        } ]
      } ],
      "subject": {
        "reference": "Patient/02d5c5f5-9487-42af-bb5e-dfc3aaeb70eb"
      },
      "period": {
        "start": "2026-10-18T09:15:00.000+00:00",
        "end": "2026-10-19T08:15:00.000+00:00"
      }
    },
    "request": {
      "method": "PUT",
      "url": "Encounter/f91876f3-1acd-400d-bc69-985ccc684be0"
    }
  }, {
    "fullUrl": "https://madie.cms.gov/Patient/02d5c5f5-9487-42af-bb5e-dfc3aaeb70eb",
    "resource": {
      "resourceType": "Patient",
      "id": "02d5c5f5-9487-42af-bb5e-dfc3aaeb70eb",
      "meta": {
        "profile": [ "http://hl7.org/fhir/us/qicore/StructureDefinition/qicore-patient" ]
      },
      "extension": [ {
        "url": "http://hl7.org/fhir/us/core/StructureDefinition/us-core-race",
        "extension": [ {
          "url": "ombCategory",
          "valueCoding": {
            "system": "urn:oid:2.16.840.1.113883.6.238",
            "code": "2106-3",
            "display": "White"
          }
        }, {
          "url": "text",
          "valueString": "White"
        } ]
      }, {
        "url": "http://hl7.org/fhir/us/core/StructureDefinition/us-core-ethnicity",
        "extension": [ {
          "url": "ombCategory",
          "valueCoding": {
            "system": "urn:oid:2.16.840.1.113883.6.238",
            "code": "2135-2",
            "display": "Hispanic or Latino"
          }
        }, {
          "url": "text",
          "valueString": "Hispanic or Latino"
        } ]
      }, {
        "url": "http://hl7.org/fhir/us/core/StructureDefinition/us-core-sex",
        "valueCode": "248153007"
      } ],
      "identifier": [ {
        "system": "http://hospital.smarthealthit.org",
        "value": "999999999"
      } ],
      "name": [ {
        "family": "Example",
        "given": [ "Patient" ]
      } ],
      "gender": "female",
      "birthDate": "1956-01-01"
    },
    "request": {
      "method": "PUT",
      "url": "Patient/02d5c5f5-9487-42af-bb5e-dfc3aaeb70eb"
    }
  }, {
    "fullUrl": "https://madie.cms.gov/Claim/14d1dac3-5736-4125-abfa-08bc723db017",
    "resource": {
      "resourceType": "Claim",
      "id": "14d1dac3-5736-4125-abfa-08bc723db017",
      "meta": {
        "profile": [ "http://hl7.org/fhir/us/qicore/StructureDefinition/qicore-claim" ]
      },
      "status": "active",
      "type": {
        "coding": [ {
          "system": "http://terminology.hl7.org/CodeSystem/claim-type",
          "code": "institutional",
          "display": "Institutional"
        } ]
      },
      "use": "claim",
      "patient": {
        "reference": "Patient/02d5c5f5-9487-42af-bb5e-dfc3aaeb70eb"
      },
      "created": "2026-10-22",
      "provider": {
        "reference": "Practitioner/practitioner-1"
      },
      "priority": {
        "coding": [ {
          "system": "http://terminology.hl7.org/CodeSystem/processpriority",
          "code": "normal"
        } ]
      },
      "diagnosis": [ {
        "sequence": 1,
        "diagnosisCodeableConcept": {
          "coding": [ {
            "system": "http://snomed.info/sct",
            "code": "14047009"
          } ]
        }
      } ],
      "insurance": [ {
        "sequence": 1,
        "focal": true,
        "coverage": {
          "reference": "Coverage/coverage-1"
        }
      } ],
      "item": [ {
        "sequence": 1,
        "diagnosisSequence": [ 1, 2 ],
        "productOrService": {
          "coding": [ {
            "system": "http://terminology.hl7.org/CodeSystem/ex-USCLS",
            "code": "1101"
          } ]
        },
        "encounter": [ {
          "reference": "Encounter/abcceb67-ad3c-4750-827b-2f36774b9db8"
        } ]
      } ]
    },
    "request": {
      "method": "PUT",
      "url": "Claim/14d1dac3-5736-4125-abfa-08bc723db017"
    }
  }, {
    "fullUrl": "https://madie.cms.gov/Claim/fef8886e-c6b9-46d8-b10e-0acb7cf106ee",
    "resource": {
      "resourceType": "Claim",
      "id": "fef8886e-c6b9-46d8-b10e-0acb7cf106ee",
      "meta": {
        "profile": [ "http://hl7.org/fhir/us/qicore/StructureDefinition/qicore-claim" ]
      },
      "status": "active",
      "type": {
        "coding": [ {
          "system": "http://terminology.hl7.org/CodeSystem/claim-type",
          "code": "institutional",
          "display": "Institutional"
        } ]
      },
      "use": "claim",
      "patient": {
        "reference": "Patient/02d5c5f5-9487-42af-bb5e-dfc3aaeb70eb"
      },
      "created": "2026-11-01",
      "provider": {
        "reference": "Practitioner/practitioner-1"
      },
      "priority": {
        "coding": [ {
          "system": "http://terminology.hl7.org/CodeSystem/processpriority",
          "code": "normal"
        } ]
      },
      "diagnosis": [ {
        "sequence": 1,
        "diagnosisCodeableConcept": {
          "coding": [ {
            "system": "http://hl7.org/fhir/sid/icd-10-cm",
            "code": "M80.00XA",
            "display": "Age-related osteoporosis with current pathological fracture, unspecified site, initial encounter for fracture"
          } ]
        }
      } ],
      "insurance": [ {
        "sequence": 1,
        "focal": true,
        "coverage": {
          "reference": "Coverage/coverage-1"
        }
      } ],
      "item": [ {
        "sequence": 1,
        "diagnosisSequence": [ 1, 2 ],
        "productOrService": {
          "coding": [ {
            "system": "http://terminology.hl7.org/CodeSystem/ex-USCLS",
            "code": "1101"
          } ]
        },
        "encounter": [ {
          "reference": "Encounter/abcceb67-ad3c-4750-827b-2f36774b9db8"
        } ]
      } ]
    },
    "request": {
      "method": "PUT",
      "url": "Claim/fef8886e-c6b9-46d8-b10e-0acb7cf106ee"
    }
  }, {
    "fullUrl": "https://madie.cms.gov/MedicationRequest/2034944a-a466-4370-a3e9-fb769d4c8a56",
    "resource": {
      "resourceType": "MedicationRequest",
      "id": "2034944a-a466-4370-a3e9-fb769d4c8a56",
      "meta": {
        "profile": [ "http://hl7.org/fhir/us/qicore/StructureDefinition/qicore-medicationrequest" ]
      },
      "status": "active",
      "intent": "order",
      "category": [ {
        "coding": [ {
          "system": "http://terminology.hl7.org/CodeSystem/medicationrequest-category",
          "code": "community",
          "display": "Community"
        } ]
      } ],
      "reportedReference": {
        "reference": "Patient/02d5c5f5-9487-42af-bb5e-dfc3aaeb70eb"
      },
      "medicationCodeableConcept": {
        "coding": [ {
          "system": "http://www.nlm.nih.gov/research/umls/rxnorm",
          "code": "1251903"
        } ]
      },
      "subject": {
        "reference": "Patient/02d5c5f5-9487-42af-bb5e-dfc3aaeb70eb"
      },
      "authoredOn": "2026-10-15",
      "requester": {
        "reference": "Practitioner/128decae-082f-4f90-8b2f-02ad812c31ea"
      },
      "dispenseRequest": {
        "quantity": {
          "value": 14,
          "unit": "tablet",
          "system": "http://unitsofmeasure.org",
          "code": "{tablet}"
        },
        "expectedSupplyDuration": {
          "value": 14,
          "unit": "days",
          "system": "http://unitsofmeasure.org",
          "code": "d"
        }
      }
    },
    "request": {
      "method": "PUT",
      "url": "MedicationRequest/2034944a-a466-4370-a3e9-fb769d4c8a56"
    }
  }, {
    "fullUrl": "https://madie.cms.gov/Practitioner/128decae-082f-4f90-8b2f-02ad812c31ea",
    "resource": {
      "resourceType": "Practitioner",
      "id": "128decae-082f-4f90-8b2f-02ad812c31ea",
      "identifier": [ {
        "system": "http://www.cms.gov/identifiers/pracitioners",
        "value": "P12345"
      } ],
      "name": [ {
        "use": "official",
        "family": "Smith",
        "given": [ "John" ]
      } ],
      "qualification": [ {
        "identifier": [ {
          "system": "http://hl7.org/fhir/sid/us-npi",
          "value": "1234567890"
        } ],
        "code": {
          "coding": [ {
            "system": "http://terminology.hl7.org/CodeSystem/v2-0203",
            "code": "MD",
            "display": "Medical License number"
          } ]
        }
      } ]
    },
    "request": {
      "method": "PUT",
      "url": "Practitioner/128decae-082f-4f90-8b2f-02ad812c31ea"
    }
  }, {
    "fullUrl": "https://madie.cms.gov/Coverage/12f5222e-259f-4eb3-b9da-f38a8e0dbe6f",
    "resource": {
      "resourceType": "Coverage",
      "id": "12f5222e-259f-4eb3-b9da-f38a8e0dbe6f",
      "status": "active",
      "beneficiary": {
        "reference": "Patient/02d5c5f5-9487-42af-bb5e-dfc3aaeb70eb"
      },
      "payor": [ {
        "reference": "Organization/f243bfd1-3457-4222-a716-78aa269e0728"
      } ]
    },
    "request": {
      "method": "PUT",
      "url": "Coverage/12f5222e-259f-4eb3-b9da-f38a8e0dbe6f"
    }
  }, {
    "fullUrl": "https://madie.cms.gov/Organization/f243bfd1-3457-4222-a716-78aa269e0728",
    "resource": {
      "resourceType": "Organization",
      "id": "f243bfd1-3457-4222-a716-78aa269e0728",
      "identifier": [ {
        "system": "http://cms.gov/insurance-ids",
        "value": "AET12345"
      } ],
      "type": [ {
        "coding": [ {
          "system": "http://terminology.hl7.org/CodeSystem/organization-type",
          "code": "prov",
          "display": "Healthcare Provider"
        } ]
      } ],
      "name": "Aetna Insurance",
      "telecom": [ {
        "system": "phone",
        "value": "+1-800-123-4567"
      } ],
      "address": [ {
        "line": [ "123 Main Street" ],
        "city": "Cityville",
        "state": "CA",
        "postalCode": "12345",
        "country": "USA"
      } ]
    },
    "request": {
      "method": "PUT",
      "url": "Organization/f243bfd1-3457-4222-a716-78aa269e0728"
    }
  }, {
    "fullUrl": "https://madie.cms.gov/MeasureReport/5835f70b-5087-4740-b4d5-7d2e3c4f29b7",
    "resource": {
      "resourceType": "MeasureReport",
      "id": "5835f70b-5087-4740-b4d5-7d2e3c4f29b7",
      "meta": {
        "profile": [ "http://hl7.org/fhir/us/cqfmeasures/StructureDefinition/test-case-cqfm" ]
      },
      "contained": [ {
        "resourceType": "Parameters",
        "id": "15f8916b-7e53-4d18-a69a-cf2da2cb3e14-parameters",
        "parameter": [ {
          "name": "subject",
          "valueString": "02d5c5f5-9487-42af-bb5e-dfc3aaeb70eb"
        } ]
      } ],
      "extension": [ {
        "url": "http://hl7.org/fhir/StructureDefinition/cqf-inputParameters",
        "valueReference": {
          "reference": "#15f8916b-7e53-4d18-a69a-cf2da2cb3e14-parameters"
        }
      }, {
        "url": "http://hl7.org/fhir/us/cqfmeasures/StructureDefinition/cqfm-testCaseDescription",
        "valueMarkdown": "RVariable Encounter With Diuretics Order At Admission"
      } ],
      "modifierExtension": [ {
        "url": "http://hl7.org/fhir/us/cqfmeasures/StructureDefinition/cqfm-isTestCase",
        "valueBoolean": true
      } ],
      "status": "complete",
      "type": "individual",
      "measure": "https://madie.cms.gov/Measure/CMS1017FHIRHHFI",
      "period": {
        "start": "2026-01-01",
        "end": "2026-12-31"
      },
      "group": [ {
        "id": "Group_1",
        "population": [ {
          "id": "InitialPopulation_1",
          "code": {
            "coding": [ {
              "system": "http://terminology.hl7.org/CodeSystem/measure-population",
              "code": "initial-population",
              "display": "Initial Population"
            } ]
          },
          "count": 1
        }, {
          "id": "Denominator_1",
          "code": {
            "coding": [ {
              "system": "http://terminology.hl7.org/CodeSystem/measure-population",
              "code": "denominator",
              "display": "Denominator"
            } ]
          },
          "count": 1
        }, {
          "id": "DenominatorExclusion_1",
          "code": {
            "coding": [ {
              "system": "http://terminology.hl7.org/CodeSystem/measure-population",
              "code": "denominator-exclusion",
              "display": "Denominator Exclusion"
            } ]
          },
          "count": 0
        }, {
          "id": "Numerator_1",
          "code": {
            "coding": [ {
              "system": "http://terminology.hl7.org/CodeSystem/measure-population",
              "code": "numerator",
              "display": "Numerator"
            } ]
          },
          "count": 1
        }, {
          "id": "NumeratorExclusion_1",
          "code": {
            "coding": [ {
              "system": "http://terminology.hl7.org/CodeSystem/measure-population",
              "code": "numerator-exclusion",
              "display": "Numerator Exclusion"
            } ]
          },
          "count": 0
        }, {
          "id": "MeasureObservation_1_1_1",
          "code": {
            "coding": [ {
              "system": "http://terminology.hl7.org/CodeSystem/measure-population",
              "code": "measure-observation",
              "display": "Measure Observation"
            } ]
          },
          "count": 12
        }, {
          "id": "MeasureObservation_1_2_1",
          "code": {
            "coding": [ {
              "system": "http://terminology.hl7.org/CodeSystem/measure-population",
              "code": "measure-observation",
              "display": "Measure Observation"
            } ]
          },
          "count": 1
        } ],
        "measureScore": {
          "value": 0.0
        }
      } ],
      "evaluatedResource": [ {
        "reference": "Encounter/abcceb67-ad3c-4750-827b-2f36774b9db8"
      }, {
        "reference": "Encounter/f91876f3-1acd-400d-bc69-985ccc684be0"
      }, {
        "reference": "Patient/02d5c5f5-9487-42af-bb5e-dfc3aaeb70eb"
      }, {
        "reference": "Claim/14d1dac3-5736-4125-abfa-08bc723db017"
      }, {
        "reference": "Claim/fef8886e-c6b9-46d8-b10e-0acb7cf106ee"
      }, {
        "reference": "MedicationRequest/2034944a-a466-4370-a3e9-fb769d4c8a56"
      }, {
        "reference": "Practitioner/128decae-082f-4f90-8b2f-02ad812c31ea"
      }, {
        "reference": "Coverage/12f5222e-259f-4eb3-b9da-f38a8e0dbe6f"
      }, {
        "reference": "Organization/f243bfd1-3457-4222-a716-78aa269e0728"
      } ]
    },
    "request": {
      "method": "PUT",
      "url": "MeasureReport/5835f70b-5087-4740-b4d5-7d2e3c4f29b7"
    }
  } ]
}