{
  "resourceType": "Bundle",
  "id": "NUMERFail-InjuryNPOANoFall",
  "type": "transaction",
  "entry": [ {
    "fullUrl": "https://madie.cms.gov/Encounter/9dd19a59-8935-424f-85b3-327b322c5680",
    "resource": {
      "resourceType": "Encounter",
      "id": "9dd19a59-8935-424f-85b3-327b322c5680",
      "meta": {
        "profile": [ "http://hl7.org/fhir/us/qicore/StructureDefinition/qicore-encounter" ]
      },
      "status": "finished",
      "class": {
        "system": "http://terminology.hl7.org/CodeSystem/v3-ActCode",
        "code": "IMP",
        "display": "inpatient encounter"
      },
      "type": [ {
        "coding": [ {
          "system": "http://snomed.info/sct",
          "code": "183452005"
        } ]
      } ],
      "subject": {
        "reference": "Patient/38d7ec48-dc28-4875-8f24-451ecd3dab5a"
      },
      "period": {
        "start": "2026-11-09T11:00:00.000+00:00",
        "end": "2026-11-12T08:15:00.000+00:00"
      },
      "diagnosis": [ {
        "condition": {
          "reference": "Condition/85c0cc98-59de-46b7-a63d-ae933f0ac489"
        }
      } ]
    },
    "request": {
      "method": "PUT",
      "url": "Encounter/9dd19a59-8935-424f-85b3-327b322c5680"
    }
  }, {
    "fullUrl": "https://madie.cms.gov/Encounter/a87e6d39-13cc-46be-936f-c107510af394",
    "resource": {
      "resourceType": "Encounter",
      "id": "a87e6d39-13cc-46be-936f-c107510af394",
      "meta": {
        "profile": [ "http://hl7.org/fhir/us/qicore/StructureDefinition/qicore-encounter" ]
      },
      "status": "finished",
      "class": {
        "system": "http://terminology.hl7.org/CodeSystem/v3-ActCode",
        "code": "IMP",
        "display": "inpatient encounter"
      },
      "type": [ {
        "coding": [ {
          "system": "http://snomed.info/sct",
          "code": "4525004"
        } ]
      } ],
      "subject": {
        "reference": "Patient/38d7ec48-dc28-4875-8f24-451ecd3dab5a"
      },
      "period": {
        "start": "2026-11-09T08:00:00.000+00:00",
        "end": "2026-11-09T10:15:00.000+00:00"
      }
    },
    "request": {
      "method": "PUT",
      "url": "Encounter/a87e6d39-13cc-46be-936f-c107510af394"
    }
  }, {
    "fullUrl": "https://madie.cms.gov/Condition/85c0cc98-59de-46b7-a63d-ae933f0ac489",
    "resource": {
      "resourceType": "Condition",
      "id": "85c0cc98-59de-46b7-a63d-ae933f0ac489",
      "meta": {
        "profile": [ "http://hl7.org/fhir/us/qicore/StructureDefinition/qicore-condition" ]
      },
      "clinicalStatus": {
        "coding": [ {
          "system": "http://terminology.hl7.org/CodeSystem/condition-clinical",
          "code": "active"
        } ]
      },
      "verificationStatus": {
        "coding": [ {
          "system": "http://terminology.hl7.org/CodeSystem/condition-ver-status",
          "code": "confirmed"
        } ]
      },
      "category": [ {
        "coding": [ {
          "system": "http://terminology.hl7.org/CodeSystem/condition-category",
          "code": "encounter-diagnosis",
          "display": "Encounter Diagnosis"
        } ]
      } ],
      "code": {
        "coding": [ {
          "system": "http://hl7.org/fhir/sid/icd-10-cm",
          "code": "S02.400B"
        } ]
      },
      "subject": {
        "reference": "Patient/38d7ec48-dc28-4875-8f24-451ecd3dab5a"
      },
      "encounter": {
        "reference": "Encounter/9dd19a59-8935-424f-85b3-327b322c5680"
      }
    },
    "request": {
      "method": "PUT",
      "url": "Condition/85c0cc98-59de-46b7-a63d-ae933f0ac489"
    }
  }, {
    "fullUrl": "https://madie.cms.gov/Patient/38d7ec48-dc28-4875-8f24-451ecd3dab5a",
    "resource": {
      "resourceType": "Patient",
      "id": "38d7ec48-dc28-4875-8f24-451ecd3dab5a",
      "meta": {
        "profile": [ "http://hl7.org/fhir/us/qicore/StructureDefinition/qicore-patient" ]
      },
      "extension": [ {
        "url": "http://hl7.org/fhir/us/core/StructureDefinition/us-core-race",
        "extension": [ {
          "url": "ombCategory",
          "valueCoding": {
            "system": "urn:oid:2.16.840.1.113883.6.238",
            "code": "2054-5",
            "display": "Black or African American",
            "userSelected": true
          }
        }, {
          "url": "text",
          "valueString": "Black or African American"
        } ]
      }, {
        "url": "http://hl7.org/fhir/us/core/StructureDefinition/us-core-ethnicity",
        "extension": [ {
          "url": "ombCategory",
          "valueCoding": {
            "system": "urn:oid:2.16.840.1.113883.6.238",
            "code": "2186-5",
            "display": "Not Hispanic or Latino",
            "userSelected": true
          }
        }, {
          "url": "text",
          "valueString": "Not Hispanic or Latino"
        } ]
      } ],
      "identifier": [ {
        "type": {
          "coding": [ {
            "system": "http://terminology.hl7.org/CodeSystem/v2-0203",
            "code": "MR"
          } ]
        },
        "system": "https://bonnie-fhir.healthit.gov/",
        "value": "61152a3b98086b7a79cbd7c1"
      } ],
      "active": true,
      "name": [ {
        "use": "usual",
        "family": "NUMERFail",
        "given": [ "InjuryNPOANoFall" ]
      } ],
      "gender": "male",
      "birthDate": "1964-12-11"
    },
    "request": {
      "method": "PUT",
      "url": "Patient/38d7ec48-dc28-4875-8f24-451ecd3dab5a"
    }
  }, {
    "fullUrl": "https://madie.cms.gov/MeasureReport/29205afe-9647-4707-9a88-acbb378fabb5",
    "resource": {
      "resourceType": "MeasureReport",
      "id": "29205afe-9647-4707-9a88-acbb378fabb5",
      "meta": {
        "profile": [ "http://hl7.org/fhir/us/cqfmeasures/StructureDefinition/test-case-cqfm" ]
      },
      "contained": [ {
        "resourceType": "Parameters",
        "id": "8dc31f88-0c62-4395-8665-ea8d6c3806ac-parameters",
        "parameter": [ {
          "name": "subject",
          "valueString": "38d7ec48-dc28-4875-8f24-451ecd3dab5a"
        } ]
      } ],
      "extension": [ {
        "url": "http://hl7.org/fhir/StructureDefinition/cqf-inputParameters",
        "valueReference": {
          "reference": "#8dc31f88-0c62-4395-8665-ea8d6c3806ac-parameters"
        }
      }, {
        "url": "http://hl7.org/fhir/us/cqfmeasures/StructureDefinition/cqfm-testCaseDescription",
        "valueMarkdown": "Encounter diagnoses include a major injury NPOA but no fall. Numerator fails."
      } ],
      "modifierExtension": [ {
        "url": "http://hl7.org/fhir/us/cqfmeasures/StructureDefinition/cqfm-isTestCase",
        "valueBoolean": true
      } ],
      "status": "complete",
      "type": "individual",
      "measure": "https://madie.cms.gov/Measure/CMS1017FHIRHHFI",
      "period": {
        "start": "2026-01-01",
        "end": "2026-12-31"
      },
      "group": [ {
        "id": "Group_1",
        "population": [ {
          "id": "InitialPopulation_1",
          "code": {
            "coding": [ {
              "system": "http://terminology.hl7.org/CodeSystem/measure-population",
              "code": "initial-population",
              "display": "Initial Population"
            } ]
          },
          "count": 1
        }, {
          "id": "Denominator_1",
          "code": {
            "coding": [ {
              "system": "http://terminology.hl7.org/CodeSystem/measure-population",
              "code": "denominator",
              "display": "Denominator"
            } ]
          },
          "count": 1
        }, {
          "id": "DenominatorExclusion_1",
          "code": {
            "coding": [ {
              "system": "http://terminology.hl7.org/CodeSystem/measure-population",
              "code": "denominator-exclusion",
              "display": "Denominator Exclusion"
            } ]
          },
          "count": 0
        }, {
          "id": "Numerator_1",
          "code": {
            "coding": [ {
              "system": "http://terminology.hl7.org/CodeSystem/measure-population",
              "code": "numerator",
              "display": "Numerator"
            } ]
          },
          "count": 0
        }, {
          "id": "NumeratorExclusion_1",
          "code": {
            "coding": [ {
              "system": "http://terminology.hl7.org/CodeSystem/measure-population",
              "code": "numerator-exclusion",
              "display": "Numerator Exclusion"
            } ]
          },
          "count": 0
        }, {
          "id": "MeasureObservation_1_1_1",
          "code": {
            "coding": [ {
              "system": "http://terminology.hl7.org/CodeSystem/measure-population",
              "code": "measure-observation",
              "display": "Measure Observation"
            } ]
          },
          "count": 3
        } ],
        "measureScore": {
          "value": 0.0
        }
      } ],
      "evaluatedResource": [ {
        "reference": "Encounter/9dd19a59-8935-424f-85b3-327b322c5680"
      }, {
        "reference": "Encounter/a87e6d39-13cc-46be-936f-c107510af394"
      }, {
        "reference": "Condition/85c0cc98-59de-46b7-a63d-ae933f0ac489"
      }, {
        "reference": "Patient/38d7ec48-dc28-4875-8f24-451ecd3dab5a"
      } ]
    },
    "request": {
      "method": "PUT",
      "url": "MeasureReport/29205afe-9647-4707-9a88-acbb378fabb5"
    }
  } ]
}