{
  "resourceType": "Bundle",
  "id": "tests-NumerPass-RVwithAnticoagulantPlanAtAdmission-bundle",
  "type": "transaction",
  "entry": [ {
    "fullUrl": "https://madie.cms.gov/Encounter/57077c37-eec7-4de5-9338-ed2b5e744621",
    "resource": {
      "resourceType": "Encounter",
      "id": "57077c37-eec7-4de5-9338-ed2b5e744621",
      "meta": {
        "profile": [ "http://hl7.org/fhir/us/qicore/StructureDefinition/qicore-encounter" ]
      },
      "status": "finished",
      "class": {
        "system": "http://terminology.hl7.org/CodeSystem/v3-ActCode",
        "code": "IMP",
        "display": "inpatient encounter"
      },
      "type": [ {
        "coding": [ {
          "system": "http://snomed.info/sct",
          "code": "183452005"
        } ]
      } ],
      "subject": {
        "reference": "Patient/25c753a7-b6b4-4335-bd7c-05b68b0324a4"
      },
      "period": {
        "start": "2026-10-19T08:30:00.000+00:00",
        "end": "2026-10-21T08:15:00.000+00:00"
      },
      "reasonCode": [ {
        "coding": [ {
          "system": "http://snomed.info/sct",
          "code": "14047009"
        } ]
      }, {
        "coding": [ {
          "system": "http://snomed.info/sct",
          "code": "64859006"
        } ]
      } ]
    },
    "request": {
      "method": "PUT",
      "url": "Encounter/57077c37-eec7-4de5-9338-ed2b5e744621"
    }
  }, {
    "fullUrl": "https://madie.cms.gov/Encounter/d7474f24-e37a-42d6-951a-cc7c8348ef3e",
    "resource": {
      "resourceType": "Encounter",
      "id": "d7474f24-e37a-42d6-951a-cc7c8348ef3e",
      "meta": {
        "profile": [ "http://hl7.org/fhir/us/qicore/StructureDefinition/qicore-encounter" ]
      },
      "status": "finished",
      "class": {
        "system": "http://terminology.hl7.org/CodeSystem/v3-ActCode",
        "code": "EMER",
        "display": "emergency encounter"
      },
      "type": [ {
        "coding": [ {
          "system": "http://snomed.info/sct",
          "code": "4525004"
        } ]
      } ],
      "subject": {
        "reference": "Patient/25c753a7-b6b4-4335-bd7c-05b68b0324a4"
      },
      "period": {
        "start": "2026-10-18T09:15:00.000+00:00",
        "end": "2026-10-19T08:15:00.000+00:00"
      }
    },
    "request": {
      "method": "PUT",
      "url": "Encounter/d7474f24-e37a-42d6-951a-cc7c8348ef3e"
    }
  }, {
    "fullUrl": "https://madie.cms.gov/Patient/25c753a7-b6b4-4335-bd7c-05b68b0324a4",
    "resource": {
      "resourceType": "Patient",
      "id": "25c753a7-b6b4-4335-bd7c-05b68b0324a4",
      "meta": {
        "profile": [ "http://hl7.org/fhir/us/qicore/StructureDefinition/qicore-patient" ]
      },
      "extension": [ {
        "url": "http://hl7.org/fhir/us/core/StructureDefinition/us-core-race",
        "extension": [ {
          "url": "ombCategory",
          "valueCoding": {
            "system": "urn:oid:2.16.840.1.113883.6.238",
            "code": "2106-3",
            "display": "White"
          }
        }, {
          "url": "text",
          "valueString": "White"
        } ]
      }, {
        "url": "http://hl7.org/fhir/us/core/StructureDefinition/us-core-ethnicity",
        "extension": [ {
          "url": "ombCategory",
          "valueCoding": {
            "system": "urn:oid:2.16.840.1.113883.6.238",
            "code": "2135-2",
            "display": "Hispanic or Latino"
          }
        }, {
          "url": "text",
          "valueString": "Hispanic or Latino"
        } ]
      }, {
        "url": "http://hl7.org/fhir/us/core/StructureDefinition/us-core-sex",
        "valueCode": "248153007"
      } ],
      "identifier": [ {
        "system": "http://hospital.smarthealthit.org",
        "value": "999999999"
      } ],
      "name": [ {
        "family": "Example",
        "given": [ "Patient" ]
      } ],
      "gender": "female",
      "birthDate": "1956-01-01"
    },
    "request": {
      "method": "PUT",
      "url": "Patient/25c753a7-b6b4-4335-bd7c-05b68b0324a4"
    }
  }, {
    "fullUrl": "https://madie.cms.gov/Claim/bf9ee4d1-fc1c-484a-8805-9a5740174035",
    "resource": {
      "resourceType": "Claim",
      "id": "bf9ee4d1-fc1c-484a-8805-9a5740174035",
      "meta": {
        "profile": [ "http://hl7.org/fhir/us/qicore/StructureDefinition/qicore-claim" ]
      },
      "status": "active",
      "type": {
        "coding": [ {
          "system": "http://terminology.hl7.org/CodeSystem/claim-type",
          "code": "institutional",
          "display": "Institutional"
        } ]
      },
      "use": "claim",
      "patient": {
        "reference": "Patient/25c753a7-b6b4-4335-bd7c-05b68b0324a4"
      },
      "created": "2026-10-22",
      "provider": {
        "reference": "Practitioner/practitioner-1"
      },
      "priority": {
        "coding": [ {
          "system": "http://terminology.hl7.org/CodeSystem/processpriority",
          "code": "normal"
        } ]
      },
      "diagnosis": [ {
        "sequence": 1,
        "diagnosisCodeableConcept": {
          "coding": [ {
            "system": "http://snomed.info/sct",
            "code": "14047009"
          } ]
        }
      } ],
      "insurance": [ {
        "sequence": 1,
        "focal": true,
        "coverage": {
          "reference": "Coverage/coverage-1"
        }
      } ],
      "item": [ {
        "sequence": 1,
        "diagnosisSequence": [ 1, 2 ],
        "productOrService": {
          "coding": [ {
            "system": "http://terminology.hl7.org/CodeSystem/ex-USCLS",
            "code": "1101"
          } ]
        },
        "encounter": [ {
          "reference": "Encounter/57077c37-eec7-4de5-9338-ed2b5e744621"
        } ]
      } ]
    },
    "request": {
      "method": "PUT",
      "url": "Claim/bf9ee4d1-fc1c-484a-8805-9a5740174035"
    }
  }, {
    "fullUrl": "https://madie.cms.gov/Claim/d81a7bd3-19df-4ad7-84fc-bd6ed278c475",
    "resource": {
      "resourceType": "Claim",
      "id": "d81a7bd3-19df-4ad7-84fc-bd6ed278c475",
      "meta": {
        "profile": [ "http://hl7.org/fhir/us/qicore/StructureDefinition/qicore-claim" ]
      },
      "status": "active",
      "type": {
        "coding": [ {
          "system": "http://terminology.hl7.org/CodeSystem/claim-type",
          "code": "institutional",
          "display": "Institutional"
        } ]
      },
      "use": "claim",
      "patient": {
        "reference": "Patient/25c753a7-b6b4-4335-bd7c-05b68b0324a4"
      },
      "created": "2026-11-01",
      "provider": {
        "reference": "Practitioner/practitioner-1"
      },
      "priority": {
        "coding": [ {
          "system": "http://terminology.hl7.org/CodeSystem/processpriority",
          "code": "normal"
        } ]
      },
      "diagnosis": [ {
        "sequence": 1,
        "diagnosisCodeableConcept": {
          "coding": [ {
            "system": "http://hl7.org/fhir/sid/icd-10-cm",
            "code": "M80.00XA",
            "display": "Age-related osteoporosis with current pathological fracture, unspecified site, initial encounter for fracture"
          } ]
        }
      } ],
      "insurance": [ {
        "sequence": 1,
        "focal": true,
        "coverage": {
          "reference": "Coverage/coverage-1"
        }
      } ],
      "item": [ {
        "sequence": 1,
        "diagnosisSequence": [ 1, 2 ],
        "productOrService": {
          "coding": [ {
            "system": "http://terminology.hl7.org/CodeSystem/ex-USCLS",
            "code": "1101"
          } ]
        },
        "encounter": [ {
          "reference": "Encounter/57077c37-eec7-4de5-9338-ed2b5e744621"
        } ]
      } ]
    },
    "request": {
      "method": "PUT",
      "url": "Claim/d81a7bd3-19df-4ad7-84fc-bd6ed278c475"
    }
  }, {
    "fullUrl": "https://madie.cms.gov/MedicationRequest/eb5278c2-00df-42b6-b456-3f8b15241837",
    "resource": {
      "resourceType": "MedicationRequest",
      "id": "eb5278c2-00df-42b6-b456-3f8b15241837",
      "meta": {
        "profile": [ "http://hl7.org/fhir/us/qicore/StructureDefinition/qicore-medicationrequest" ]
      },
      "status": "active",
      "intent": "plan",
      "category": [ {
        "coding": [ {
          "system": "http://terminology.hl7.org/CodeSystem/medicationrequest-category",
          "code": "community",
          "display": "Community"
        } ]
      } ],
      "reportedReference": {
        "reference": "Patient/25c753a7-b6b4-4335-bd7c-05b68b0324a4"
      },
      "medicationCodeableConcept": {
        "coding": [ {
          "system": "http://www.nlm.nih.gov/research/umls/rxnorm",
          "code": "1364435",
          "display": "apixaban 2.5 mg oral tablet"
        } ]
      },
      "subject": {
        "reference": "Patient/25c753a7-b6b4-4335-bd7c-05b68b0324a4"
      },
      "authoredOn": "2026-10-15",
      "requester": {
        "reference": "Practitioner/b33f9dcc-646d-41a1-b305-212b670e986e"
      },
      "dispenseRequest": {
        "quantity": {
          "value": 14,
          "unit": "tablet",
          "system": "http://unitsofmeasure.org",
          "code": "{tablet}"
        },
        "expectedSupplyDuration": {
          "value": 14,
          "unit": "days",
          "system": "http://unitsofmeasure.org",
          "code": "d"
        }
      }
    },
    "request": {
      "method": "PUT",
      "url": "MedicationRequest/eb5278c2-00df-42b6-b456-3f8b15241837"
    }
  }, {
    "fullUrl": "https://madie.cms.gov/Observation/49f444ce-04ea-4a13-9f62-3e36ed8e3181",
    "resource": {
      "resourceType": "Observation",
      "id": "49f444ce-04ea-4a13-9f62-3e36ed8e3181",
      "meta": {
        "profile": [ "http://hl7.org/fhir/us/core/StructureDefinition/us-core-bmi" ]
      },
      "status": "final",
      "category": [ {
        "coding": [ {
          "system": "http://terminology.hl7.org/CodeSystem/observation-category",
          "code": "vital-signs",
          "display": "Vital Signs"
        } ]
      } ],
      "code": {
        "coding": [ {
          "system": "http://loinc.org",
          "code": "39156-5",
          "display": "Body mass index (BMI) [Ratio]"
        } ],
        "text": "BMI"
      },
      "subject": {
        "reference": "Patient/25c753a7-b6b4-4335-bd7c-05b68b0324a4"
      },
      "effectiveDateTime": "2026-10-20T08:00:00.000+00:00",
      "valueQuantity": {
        "value": 28.3,
        "unit": "kg/m2",
        "system": "http://unitsofmeasure.org",
        "code": "kg/m2"
      }
    },
    "request": {
      "method": "PUT",
      "url": "Observation/49f444ce-04ea-4a13-9f62-3e36ed8e3181"
    }
  }, {
    "fullUrl": "https://madie.cms.gov/Practitioner/b33f9dcc-646d-41a1-b305-212b670e986e",
    "resource": {
      "resourceType": "Practitioner",
      "id": "b33f9dcc-646d-41a1-b305-212b670e986e",
      "identifier": [ {
        "system": "http://www.cms.gov/identifiers/pracitioners",
        "value": "P12345"
      } ],
      "name": [ {
        "use": "official",
        "family": "Smith",
        "given": [ "John" ]
      } ],
      "qualification": [ {
        "identifier": [ {
          "system": "http://hl7.org/fhir/sid/us-npi",
          "value": "1234567890"
        } ],
        "code": {
          "coding": [ {
            "system": "http://terminology.hl7.org/CodeSystem/v2-0203",
            "code": "MD",
            "display": "Medical License number"
          } ]
        }
      } ]
    },
    "request": {
      "method": "PUT",
      "url": "Practitioner/b33f9dcc-646d-41a1-b305-212b670e986e"
    }
  }, {
    "fullUrl": "https://madie.cms.gov/Coverage/1f3d765b-8946-4fff-8175-e5009be26db0",
    "resource": {
      "resourceType": "Coverage",
      "id": "1f3d765b-8946-4fff-8175-e5009be26db0",
      "status": "active",
      "beneficiary": {
        "reference": "Patient/25c753a7-b6b4-4335-bd7c-05b68b0324a4"
      },
      "payor": [ {
        "reference": "Organization/74e30e89-fd00-4d8f-bab4-65639c5b0204"
      } ]
    },
    "request": {
      "method": "PUT",
      "url": "Coverage/1f3d765b-8946-4fff-8175-e5009be26db0"
    }
  }, {
    "fullUrl": "https://madie.cms.gov/Organization/74e30e89-fd00-4d8f-bab4-65639c5b0204",
    "resource": {
      "resourceType": "Organization",
      "id": "74e30e89-fd00-4d8f-bab4-65639c5b0204",
      "identifier": [ {
        "system": "http://cms.gov/insurance-ids",
        "value": "AET12345"
      } ],
      "type": [ {
        "coding": [ {
          "system": "http://terminology.hl7.org/CodeSystem/organization-type",
          "code": "prov",
          "display": "Healthcare Provider"
        } ]
      } ],
      "name": "Aetna Insurance",
      "telecom": [ {
        "system": "phone",
        "value": "+1-800-123-4567"
      } ],
      "address": [ {
        "line": [ "123 Main Street" ],
        "city": "Cityville",
        "state": "CA",
        "postalCode": "12345",
        "country": "USA"
      } ]
    },
    "request": {
      "method": "PUT",
      "url": "Organization/74e30e89-fd00-4d8f-bab4-65639c5b0204"
    }
  }, {
    "fullUrl": "https://madie.cms.gov/MeasureReport/98db172b-dec0-4b07-a4ab-b65f51add1bd",
    "resource": {
      "resourceType": "MeasureReport",
      "id": "98db172b-dec0-4b07-a4ab-b65f51add1bd",
      "meta": {
        "profile": [ "http://hl7.org/fhir/us/cqfmeasures/StructureDefinition/test-case-cqfm" ]
      },
      "contained": [ {
        "resourceType": "Parameters",
        "id": "4a5065a8-b81d-4ed7-afaa-8b6e7b1f5cb8-parameters",
        "parameter": [ {
          "name": "subject",
          "valueString": "25c753a7-b6b4-4335-bd7c-05b68b0324a4"
        } ]
      } ],
      "extension": [ {
        "url": "http://hl7.org/fhir/StructureDefinition/cqf-inputParameters",
        "valueReference": {
          "reference": "#4a5065a8-b81d-4ed7-afaa-8b6e7b1f5cb8-parameters"
        }
      }, {
        "url": "http://hl7.org/fhir/us/cqfmeasures/StructureDefinition/cqfm-testCaseDescription",
        "valueMarkdown": "RVariable Encounter With Anticoagulant Plan At Admission"
      } ],
      "modifierExtension": [ {
        "url": "http://hl7.org/fhir/us/cqfmeasures/StructureDefinition/cqfm-isTestCase",
        "valueBoolean": true
      } ],
      "status": "complete",
      "type": "individual",
      "measure": "https://madie.cms.gov/Measure/CMS1017FHIRHHFI",
      "period": {
        "start": "2026-01-01",
        "end": "2026-12-31"
      },
      "group": [ {
        "id": "Group_1",
        "population": [ {
          "id": "InitialPopulation_1",
          "code": {
            "coding": [ {
              "system": "http://terminology.hl7.org/CodeSystem/measure-population",
              "code": "initial-population",
              "display": "Initial Population"
            } ]
          },
          "count": 1
        }, {
          "id": "Denominator_1",
          "code": {
            "coding": [ {
              "system": "http://terminology.hl7.org/CodeSystem/measure-population",
              "code": "denominator",
              "display": "Denominator"
            } ]
          },
          "count": 1
        }, {
          "id": "DenominatorExclusion_1",
          "code": {
            "coding": [ {
              "system": "http://terminology.hl7.org/CodeSystem/measure-population",
              "code": "denominator-exclusion",
              "display": "Denominator Exclusion"
            } ]
          },
          "count": 0
        }, {
          "id": "Numerator_1",
          "code": {
            "coding": [ {
              "system": "http://terminology.hl7.org/CodeSystem/measure-population",
              "code": "numerator",
              "display": "Numerator"
            } ]
          },
          "count": 1
        }, {
          "id": "NumeratorExclusion_1",
          "code": {
            "coding": [ {
              "system": "http://terminology.hl7.org/CodeSystem/measure-population",
              "code": "numerator-exclusion",
              "display": "Numerator Exclusion"
            } ]
          },
          "count": 0
        }, {
          "id": "MeasureObservation_1_1_1",
          "code": {
            "coding": [ {
              "system": "http://terminology.hl7.org/CodeSystem/measure-population",
              "code": "measure-observation",
              "display": "Measure Observation"
            } ]
          },
          "count": 2
        }, {
          "id": "MeasureObservation_1_2_1",
          "code": {
            "coding": [ {
              "system": "http://terminology.hl7.org/CodeSystem/measure-population",
              "code": "measure-observation",
              "display": "Measure Observation"
            } ]
          },
          "count": 1
        } ],
        "measureScore": {
          "value": 0.0
        }
      } ],
      "evaluatedResource": [ {
        "reference": "Encounter/57077c37-eec7-4de5-9338-ed2b5e744621"
      }, {
        "reference": "Encounter/d7474f24-e37a-42d6-951a-cc7c8348ef3e"
      }, {
        "reference": "Patient/25c753a7-b6b4-4335-bd7c-05b68b0324a4"
      }, {
        "reference": "Claim/bf9ee4d1-fc1c-484a-8805-9a5740174035"
      }, {
        "reference": "Claim/d81a7bd3-19df-4ad7-84fc-bd6ed278c475"
      }, {
        "reference": "MedicationRequest/eb5278c2-00df-42b6-b456-3f8b15241837"
      }, {
        "reference": "Observation/49f444ce-04ea-4a13-9f62-3e36ed8e3181"
      }, {
        "reference": "Practitioner/b33f9dcc-646d-41a1-b305-212b670e986e"
      }, {
        "reference": "Coverage/1f3d765b-8946-4fff-8175-e5009be26db0"
      }, {
        "reference": "Organization/74e30e89-fd00-4d8f-bab4-65639c5b0204"
      } ]
    },
    "request": {
      "method": "PUT",
      "url": "MeasureReport/98db172b-dec0-4b07-a4ab-b65f51add1bd"
    }
  } ]
}