{
  "resourceType": "Bundle",
  "id": "NUMEXPass-1stEncExcluded2ndEncNumHit",
  "type": "transaction",
  "entry": [ {
    "fullUrl": "https://madie.cms.gov/Encounter/131313d9-7648-4fbc-9a7a-d9d08ed4d0f6",
    "resource": {
      "resourceType": "Encounter",
      "id": "131313d9-7648-4fbc-9a7a-d9d08ed4d0f6",
      "meta": {
        "profile": [ "http://hl7.org/fhir/us/qicore/StructureDefinition/qicore-encounter" ]
      },
      "status": "finished",
      "class": {
        "system": "http://terminology.hl7.org/CodeSystem/v3-ActCode",
        "code": "IMP",
        "display": "inpatient encounter"
      },
      "type": [ {
        "coding": [ {
          "system": "http://snomed.info/sct",
          "code": "183452005"
        } ]
      } ],
      "subject": {
        "reference": "Patient/5ff2713d-ca89-42ae-91bb-cba3e1d9a487"
      },
      "period": {
        "start": "2026-12-01T08:00:00.000+00:00",
        "end": "2026-12-06T08:15:00.000+00:00"
      },
      "reasonCode": [ {
        "coding": [ {
          "system": "http://hl7.org/fhir/sid/icd-10-cm",
          "code": "S02.101A"
        } ]
      }, {
        "coding": [ {
          "system": "http://hl7.org/fhir/sid/icd-10-cm",
          "code": "W05.1XXA"
        } ]
      } ]
    },
    "request": {
      "method": "PUT",
      "url": "Encounter/131313d9-7648-4fbc-9a7a-d9d08ed4d0f6"
    }
  }, {
    "fullUrl": "https://madie.cms.gov/Encounter/2a063566-c9d0-4857-8573-8d592165f377",
    "resource": {
      "resourceType": "Encounter",
      "id": "2a063566-c9d0-4857-8573-8d592165f377",
      "meta": {
        "profile": [ "http://hl7.org/fhir/us/qicore/StructureDefinition/qicore-encounter" ]
      },
      "status": "finished",
      "class": {
        "system": "http://terminology.hl7.org/CodeSystem/v3-ActCode",
        "code": "IMP",
        "display": "inpatient encounter"
      },
      "type": [ {
        "coding": [ {
          "system": "http://snomed.info/sct",
          "code": "183452005"
        } ]
      } ],
      "subject": {
        "reference": "Patient/5ff2713d-ca89-42ae-91bb-cba3e1d9a487"
      },
      "period": {
        "start": "2026-11-09T11:00:00.000+00:00",
        "end": "2026-11-12T08:15:00.000+00:00"
      },
      "reasonCode": [ {
        "coding": [ {
          "system": "http://snomed.info/sct",
          "code": "14047009"
        } ]
      }, {
        "coding": [ {
          "system": "http://hl7.org/fhir/sid/icd-10-cm",
          "code": "W08.XXXA"
        } ]
      } ]
    },
    "request": {
      "method": "PUT",
      "url": "Encounter/2a063566-c9d0-4857-8573-8d592165f377"
    }
  }, {
    "fullUrl": "https://madie.cms.gov/Encounter/115a1350-e7f4-4524-b8d6-d45ab8e9c19d",
    "resource": {
      "resourceType": "Encounter",
      "id": "115a1350-e7f4-4524-b8d6-d45ab8e9c19d",
      "meta": {
        "profile": [ "http://hl7.org/fhir/us/qicore/StructureDefinition/qicore-encounter" ]
      },
      "status": "finished",
      "class": {
        "system": "http://terminology.hl7.org/CodeSystem/v3-ActCode",
        "code": "IMP",
        "display": "inpatient encounter"
      },
      "type": [ {
        "coding": [ {
          "system": "http://snomed.info/sct",
          "code": "4525004"
        } ]
      } ],
      "subject": {
        "reference": "Patient/5ff2713d-ca89-42ae-91bb-cba3e1d9a487"
      },
      "period": {
        "start": "2026-11-09T08:00:00.000+00:00",
        "end": "2026-11-09T10:15:00.000+00:00"
      }
    },
    "request": {
      "method": "PUT",
      "url": "Encounter/115a1350-e7f4-4524-b8d6-d45ab8e9c19d"
    }
  }, {
    "fullUrl": "https://madie.cms.gov/Patient/5ff2713d-ca89-42ae-91bb-cba3e1d9a487",
    "resource": {
      "resourceType": "Patient",
      "id": "5ff2713d-ca89-42ae-91bb-cba3e1d9a487",
      "meta": {
        "profile": [ "http://hl7.org/fhir/us/qicore/StructureDefinition/qicore-patient" ]
      },
      "extension": [ {
        "url": "http://hl7.org/fhir/us/core/StructureDefinition/us-core-race",
        "extension": [ {
          "url": "ombCategory",
          "valueCoding": {
            "system": "urn:oid:2.16.840.1.113883.6.238",
            "code": "2054-5",
            "display": "Black or African American",
            "userSelected": true
          }
        }, {
          "url": "text",
          "valueString": "Black or African American"
        } ]
      }, {
        "url": "http://hl7.org/fhir/us/core/StructureDefinition/us-core-ethnicity",
        "extension": [ {
          "url": "ombCategory",
          "valueCoding": {
            "system": "urn:oid:2.16.840.1.113883.6.238",
            "code": "2186-5",
            "display": "Not Hispanic or Latino",
            "userSelected": true
          }
        }, {
          "url": "text",
          "valueString": "Not Hispanic or Latino"
        } ]
      }, {
        "url": "http://hl7.org/fhir/us/core/StructureDefinition/us-core-sex",
        "valueCode": "248153007"
      } ],
      "identifier": [ {
        "type": {
          "coding": [ {
            "system": "http://terminology.hl7.org/CodeSystem/v2-0203",
            "code": "MR"
          } ]
        },
        "system": "https://bonnie-fhir.healthit.gov/",
        "value": "61152a3b98086b7a79cbd7c1"
      } ],
      "active": true,
      "name": [ {
        "use": "usual",
        "family": "NUMEXPass",
        "given": [ "1stEncExcluded2ndEncNumHit" ]
      } ],
      "gender": "male",
      "birthDate": "1964-12-11"
    },
    "request": {
      "method": "PUT",
      "url": "Patient/5ff2713d-ca89-42ae-91bb-cba3e1d9a487"
    }
  }, {
    "fullUrl": "https://madie.cms.gov/AdverseEvent/60ef1e1a-6b39-4e40-ae72-5e2d7eed7241",
    "resource": {
      "resourceType": "AdverseEvent",
      "id": "60ef1e1a-6b39-4e40-ae72-5e2d7eed7241",
      "meta": {
        "profile": [ "http://hl7.org/fhir/us/qicore/StructureDefinition/qicore-adverseevent" ]
      },
      "actuality": "actual",
      "event": {
        "coding": [ {
          "system": "http://hl7.org/fhir/sid/icd-10-cm",
          "code": "W01.0XXA"
        } ]
      },
      "subject": {
        "reference": "Patient/5ff2713d-ca89-42ae-91bb-cba3e1d9a487"
      },
      "date": "2026-11-10T08:30:00.000+00:00"
    },
    "request": {
      "method": "PUT",
      "url": "AdverseEvent/60ef1e1a-6b39-4e40-ae72-5e2d7eed7241"
    }
  }, {
    "fullUrl": "https://madie.cms.gov/Claim/2ce9532f-5e29-4bac-a7cf-293dc0a005dd",
    "resource": {
      "resourceType": "Claim",
      "id": "2ce9532f-5e29-4bac-a7cf-293dc0a005dd",
      "meta": {
        "profile": [ "http://hl7.org/fhir/us/qicore/StructureDefinition/qicore-claim" ]
      },
      "status": "active",
      "type": {
        "coding": [ {
          "system": "http://terminology.hl7.org/CodeSystem/claim-type",
          "code": "professional",
          "display": "Professional"
        } ]
      },
      "use": "claim",
      "patient": {
        "reference": "Patient/5ff2713d-ca89-42ae-91bb-cba3e1d9a487"
      },
      "created": "2026-11-12",
      "provider": {
        "reference": "Practitioner/c32a67e3-90f0-44be-82e9-c25e7b3fbec2"
      },
      "priority": {
        "coding": [ {
          "system": "http://terminology.hl7.org/CodeSystem/processpriority",
          "code": "normal"
        } ]
      },
      "diagnosis": [ {
        "sequence": 1,
        "diagnosisCodeableConcept": {
          "coding": [ {
            "system": "http://hl7.org/fhir/sid/icd-10-cm",
            "code": "W08.XXXA"
          } ]
        },
        "onAdmission": {
          "coding": [ {
            "system": "https://www.cms.gov/Medicare/Medicare-Fee-for-Service-Payment/HospitalAcqCond/Coding",
            "code": "Y"
          } ]
        }
      } ],
      "insurance": [ {
        "sequence": 1,
        "focal": true,
        "coverage": {
          "reference": "Coverage/1458a11d-4cfc-4a92-a0d3-6c4e537fd03a"
        }
      } ],
      "item": [ {
        "sequence": 1,
        "diagnosisSequence": [ 1, 2 ],
        "productOrService": {
          "coding": [ {
            "system": "http://terminology.hl7.org/CodeSystem/ex-USCLS",
            "code": "1101"
          } ]
        },
        "encounter": [ {
          "reference": "Encounter/2a063566-c9d0-4857-8573-8d592165f377"
        } ]
      } ]
    },
    "request": {
      "method": "PUT",
      "url": "Claim/2ce9532f-5e29-4bac-a7cf-293dc0a005dd"
    }
  }, {
    "fullUrl": "https://madie.cms.gov/Claim/63029cc6-8547-4c1c-accb-184d5b365984",
    "resource": {
      "resourceType": "Claim",
      "id": "63029cc6-8547-4c1c-accb-184d5b365984",
      "meta": {
        "profile": [ "http://hl7.org/fhir/us/qicore/StructureDefinition/qicore-claim" ]
      },
      "status": "active",
      "type": {
        "coding": [ {
          "system": "http://terminology.hl7.org/CodeSystem/claim-type",
          "code": "professional",
          "display": "Professional"
        } ]
      },
      "use": "claim",
      "patient": {
        "reference": "Patient/5ff2713d-ca89-42ae-91bb-cba3e1d9a487"
      },
      "created": "2026-11-12",
      "provider": {
        "reference": "Practitioner/c32a67e3-90f0-44be-82e9-c25e7b3fbec2"
      },
      "priority": {
        "coding": [ {
          "system": "http://terminology.hl7.org/CodeSystem/processpriority",
          "code": "normal"
        } ]
      },
      "diagnosis": [ {
        "sequence": 2,
        "diagnosisCodeableConcept": {
          "coding": [ {
            "system": "http://snomed.info/sct",
            "code": "14047009"
          } ]
        },
        "onAdmission": {
          "coding": [ {
            "system": "https://www.cms.gov/Medicare/Medicare-Fee-for-Service-Payment/HospitalAcqCond/Coding",
            "code": "N"
          } ]
        }
      } ],
      "insurance": [ {
        "sequence": 1,
        "focal": true,
        "coverage": {
          "reference": "Coverage/1458a11d-4cfc-4a92-a0d3-6c4e537fd03a"
        }
      } ],
      "item": [ {
        "sequence": 2,
        "diagnosisSequence": [ 1, 2 ],
        "productOrService": {
          "coding": [ {
            "system": "http://terminology.hl7.org/CodeSystem/ex-USCLS",
            "code": "1101"
          } ]
        },
        "encounter": [ {
          "reference": "Encounter/2a063566-c9d0-4857-8573-8d592165f377"
        } ]
      } ]
    },
    "request": {
      "method": "PUT",
      "url": "Claim/63029cc6-8547-4c1c-accb-184d5b365984"
    }
  }, {
    "fullUrl": "https://madie.cms.gov/Claim/5b927333-c230-41f1-816f-595026bacc4e",
    "resource": {
      "resourceType": "Claim",
      "id": "5b927333-c230-41f1-816f-595026bacc4e",
      "meta": {
        "profile": [ "http://hl7.org/fhir/us/qicore/StructureDefinition/qicore-claim" ]
      },
      "status": "active",
      "type": {
        "coding": [ {
          "system": "http://terminology.hl7.org/CodeSystem/claim-type",
          "code": "professional",
          "display": "Professional"
        } ]
      },
      "use": "claim",
      "patient": {
        "reference": "Patient/5ff2713d-ca89-42ae-91bb-cba3e1d9a487"
      },
      "created": "2026-12-06",
      "provider": {
        "reference": "Practitioner/c32a67e3-90f0-44be-82e9-c25e7b3fbec2"
      },
      "priority": {
        "coding": [ {
          "system": "http://terminology.hl7.org/CodeSystem/processpriority",
          "code": "normal"
        } ]
      },
      "diagnosis": [ {
        "sequence": 1,
        "diagnosisCodeableConcept": {
          "coding": [ {
            "system": "http://hl7.org/fhir/sid/icd-10-cm",
            "code": "S02.101A"
          } ]
        },
        "onAdmission": {
          "coding": [ {
            "system": "https://www.cms.gov/Medicare/Medicare-Fee-for-Service-Payment/HospitalAcqCond/Coding",
            "code": "N"
          } ]
        }
      } ],
      "insurance": [ {
        "sequence": 1,
        "focal": true,
        "coverage": {
          "reference": "Coverage/1458a11d-4cfc-4a92-a0d3-6c4e537fd03a"
        }
      } ],
      "item": [ {
        "sequence": 1,
        "diagnosisSequence": [ 1, 2 ],
        "productOrService": {
          "coding": [ {
            "system": "http://terminology.hl7.org/CodeSystem/ex-USCLS",
            "code": "1101"
          } ]
        },
        "encounter": [ {
          "reference": "Encounter/131313d9-7648-4fbc-9a7a-d9d08ed4d0f6"
        } ]
      } ]
    },
    "request": {
      "method": "PUT",
      "url": "Claim/5b927333-c230-41f1-816f-595026bacc4e"
    }
  }, {
    "fullUrl": "https://madie.cms.gov/Claim/90bb56ce-f462-402c-9ec9-1d140d13804a",
    "resource": {
      "resourceType": "Claim",
      "id": "90bb56ce-f462-402c-9ec9-1d140d13804a",
      "meta": {
        "profile": [ "http://hl7.org/fhir/us/qicore/StructureDefinition/qicore-claim" ]
      },
      "status": "active",
      "type": {
        "coding": [ {
          "system": "http://terminology.hl7.org/CodeSystem/claim-type",
          "code": "professional",
          "display": "Professional"
        } ]
      },
      "use": "claim",
      "patient": {
        "reference": "Patient/5ff2713d-ca89-42ae-91bb-cba3e1d9a487"
      },
      "created": "2026-12-06",
      "provider": {
        "reference": "Practitioner/c32a67e3-90f0-44be-82e9-c25e7b3fbec2"
      },
      "priority": {
        "coding": [ {
          "system": "http://terminology.hl7.org/CodeSystem/processpriority",
          "code": "normal"
        } ]
      },
      "diagnosis": [ {
        "sequence": 2,
        "diagnosisCodeableConcept": {
          "coding": [ {
            "system": "http://hl7.org/fhir/sid/icd-10-cm",
            "code": "W05.1XXA"
          } ]
        },
        "onAdmission": {
          "coding": [ {
            "system": "https://www.cms.gov/Medicare/Medicare-Fee-for-Service-Payment/HospitalAcqCond/Coding",
            "code": "N"
          } ]
        }
      } ],
      "insurance": [ {
        "sequence": 1,
        "focal": true,
        "coverage": {
          "reference": "Coverage/1458a11d-4cfc-4a92-a0d3-6c4e537fd03a"
        }
      } ],
      "item": [ {
        "sequence": 2,
        "diagnosisSequence": [ 1, 2 ],
        "productOrService": {
          "coding": [ {
            "system": "http://terminology.hl7.org/CodeSystem/ex-USCLS",
            "code": "1101"
          } ]
        },
        "encounter": [ {
          "reference": "Encounter/131313d9-7648-4fbc-9a7a-d9d08ed4d0f6"
        } ]
      } ]
    },
    "request": {
      "method": "PUT",
      "url": "Claim/90bb56ce-f462-402c-9ec9-1d140d13804a"
    }
  }, {
    "fullUrl": "https://madie.cms.gov/Practitioner/c32a67e3-90f0-44be-82e9-c25e7b3fbec2",
    "resource": {
      "resourceType": "Practitioner",
      "id": "c32a67e3-90f0-44be-82e9-c25e7b3fbec2",
      "identifier": [ {
        "system": "http://www.cms.gov/identifiers/pracitioners",
        "value": "P12345"
      } ],
      "name": [ {
        "use": "official",
        "family": "Smith",
        "given": [ "John" ]
      } ],
      "qualification": [ {
        "identifier": [ {
          "system": "http://hl7.org/fhir/sid/us-npi",
          "value": "1234567890"
        } ],
        "code": {
          "coding": [ {
            "system": "http://terminology.hl7.org/CodeSystem/v2-0203",
            "code": "MD",
            "display": "Medical License number"
          } ]
        }
      } ]
    },
    "request": {
      "method": "PUT",
      "url": "Practitioner/c32a67e3-90f0-44be-82e9-c25e7b3fbec2"
    }
  }, {
    "fullUrl": "https://madie.cms.gov/Coverage/1458a11d-4cfc-4a92-a0d3-6c4e537fd03a",
    "resource": {
      "resourceType": "Coverage",
      "id": "1458a11d-4cfc-4a92-a0d3-6c4e537fd03a",
      "status": "active",
      "beneficiary": {
        "reference": "Patient/5ff2713d-ca89-42ae-91bb-cba3e1d9a487"
      },
      "payor": [ {
        "reference": "Organization/6e27c727-6236-4c53-b158-b0738c8c8217"
      } ]
    },
    "request": {
      "method": "PUT",
      "url": "Coverage/1458a11d-4cfc-4a92-a0d3-6c4e537fd03a"
    }
  }, {
    "fullUrl": "https://madie.cms.gov/Organization/6e27c727-6236-4c53-b158-b0738c8c8217",
    "resource": {
      "resourceType": "Organization",
      "id": "6e27c727-6236-4c53-b158-b0738c8c8217",
      "identifier": [ {
        "system": "http://cms.gov/insurance-ids",
        "value": "AET12345"
      } ],
      "type": [ {
        "coding": [ {
          "system": "http://terminology.hl7.org/CodeSystem/organization-type",
          "code": "prov",
          "display": "Healthcare Provider"
        } ]
      } ],
      "name": "Aetna Insurance",
      "telecom": [ {
        "system": "phone",
        "value": "+1-800-123-4567"
      } ],
      "address": [ {
        "line": [ "123 Main Street" ],
        "city": "Cityville",
        "state": "CA",
        "postalCode": "12345",
        "country": "USA"
      } ]
    },
    "request": {
      "method": "PUT",
      "url": "Organization/6e27c727-6236-4c53-b158-b0738c8c8217"
    }
  }, {
    "fullUrl": "https://madie.cms.gov/MeasureReport/1c8d670a-32f7-4333-84cf-fb2078963684",
    "resource": {
      "resourceType": "MeasureReport",
      "id": "1c8d670a-32f7-4333-84cf-fb2078963684",
      "meta": {
        "profile": [ "http://hl7.org/fhir/us/cqfmeasures/StructureDefinition/test-case-cqfm" ]
      },
      "contained": [ {
        "resourceType": "Parameters",
        "id": "d13eaa56-40d1-490d-878d-4389300665e7-parameters",
        "parameter": [ {
          "name": "subject",
          "valueString": "5ff2713d-ca89-42ae-91bb-cba3e1d9a487"
        } ]
      } ],
      "extension": [ {
        "url": "http://hl7.org/fhir/StructureDefinition/cqf-inputParameters",
        "valueReference": {
          "reference": "#d13eaa56-40d1-490d-878d-4389300665e7-parameters"
        }
      }, {
        "url": "http://hl7.org/fhir/us/cqfmeasures/StructureDefinition/cqfm-testCaseDescription",
        "valueMarkdown": "Enc 1: Fall POA=Y. Injury=NPOA. Meets Den, Num, then excluded from both due to fall POA. MOs = 0. \nEnc 2: Fall and Injury = NPOA, meets numerator. \nNum MO = 1, Denom MO = 5."
      } ],
      "modifierExtension": [ {
        "url": "http://hl7.org/fhir/us/cqfmeasures/StructureDefinition/cqfm-isTestCase",
        "valueBoolean": true
      } ],
      "status": "complete",
      "type": "individual",
      "measure": "https://madie.cms.gov/Measure/CMS1017FHIRHHFI",
      "period": {
        "start": "2026-01-01",
        "end": "2026-12-31"
      },
      "group": [ {
        "id": "Group_1",
        "population": [ {
          "id": "InitialPopulation_1",
          "code": {
            "coding": [ {
              "system": "http://terminology.hl7.org/CodeSystem/measure-population",
              "code": "initial-population",
              "display": "Initial Population"
            } ]
          },
          "count": 2
        }, {
          "id": "Denominator_1",
          "code": {
            "coding": [ {
              "system": "http://terminology.hl7.org/CodeSystem/measure-population",
              "code": "denominator",
              "display": "Denominator"
            } ]
          },
          "count": 2
        }, {
          "id": "DenominatorExclusion_1",
          "code": {
            "coding": [ {
              "system": "http://terminology.hl7.org/CodeSystem/measure-population",
              "code": "denominator-exclusion",
              "display": "Denominator Exclusion"
            } ]
          },
          "count": 1
        }, {
          "id": "Numerator_1",
          "code": {
            "coding": [ {
              "system": "http://terminology.hl7.org/CodeSystem/measure-population",
              "code": "numerator",
              "display": "Numerator"
            } ]
          },
          "count": 1
        }, {
          "id": "NumeratorExclusion_1",
          "code": {
            "coding": [ {
              "system": "http://terminology.hl7.org/CodeSystem/measure-population",
              "code": "numerator-exclusion",
              "display": "Numerator Exclusion"
            } ]
          },
          "count": 1
        }, {
          "id": "MeasureObservation_1_1_1",
          "code": {
            "coding": [ {
              "system": "http://terminology.hl7.org/CodeSystem/measure-population",
              "code": "measure-observation",
              "display": "Measure Observation"
            } ]
          },
          "count": 5
        } ],
        "measureScore": {
          "value": 0.0
        }
      } ],
      "evaluatedResource": [ {
        "reference": "Encounter/131313d9-7648-4fbc-9a7a-d9d08ed4d0f6"
      }, {
        "reference": "Encounter/2a063566-c9d0-4857-8573-8d592165f377"
      }, {
        "reference": "Encounter/115a1350-e7f4-4524-b8d6-d45ab8e9c19d"
      }, {
        "reference": "Patient/5ff2713d-ca89-42ae-91bb-cba3e1d9a487"
      }, {
        "reference": "AdverseEvent/60ef1e1a-6b39-4e40-ae72-5e2d7eed7241"
      }, {
        "reference": "Claim/2ce9532f-5e29-4bac-a7cf-293dc0a005dd"
      }, {
        "reference": "Claim/63029cc6-8547-4c1c-accb-184d5b365984"
      }, {
        "reference": "Claim/5b927333-c230-41f1-816f-595026bacc4e"
      }, {
        "reference": "Claim/90bb56ce-f462-402c-9ec9-1d140d13804a"
      }, {
        "reference": "Practitioner/c32a67e3-90f0-44be-82e9-c25e7b3fbec2"
      }, {
        "reference": "Coverage/1458a11d-4cfc-4a92-a0d3-6c4e537fd03a"
      }, {
        "reference": "Organization/6e27c727-6236-4c53-b158-b0738c8c8217"
      } ]
    },
    "request": {
      "method": "PUT",
      "url": "MeasureReport/1c8d670a-32f7-4333-84cf-fb2078963684"
    }
  } ]
}