{
  "resourceType": "Bundle",
  "id": "tests-NumerPass-RVwithOpioidPlanAtAdmission-bundle",
  "type": "transaction",
  "entry": [ {
    "fullUrl": "https://madie.cms.gov/Encounter/5a60c22a-8595-43ba-bd32-b1144f4909be",
    "resource": {
      "resourceType": "Encounter",
      "id": "5a60c22a-8595-43ba-bd32-b1144f4909be",
      "meta": {
        "profile": [ "http://hl7.org/fhir/us/qicore/StructureDefinition/qicore-encounter" ]
      },
      "status": "finished",
      "class": {
        "system": "http://terminology.hl7.org/CodeSystem/v3-ActCode",
        "code": "IMP",
        "display": "inpatient encounter"
      },
      "type": [ {
        "coding": [ {
          "system": "http://snomed.info/sct",
          "code": "183452005"
        } ]
      } ],
      "subject": {
        "reference": "Patient/4402a9b9-3d48-4472-a000-579b7baa88fa"
      },
      "period": {
        "start": "2026-10-19T08:30:00.000+00:00",
        "end": "2026-10-31T08:15:00.000+00:00"
      },
      "reasonCode": [ {
        "coding": [ {
          "system": "http://snomed.info/sct",
          "code": "14047009"
        } ]
      }, {
        "coding": [ {
          "system": "http://snomed.info/sct",
          "code": "64859006"
        } ]
      } ]
    },
    "request": {
      "method": "PUT",
      "url": "Encounter/5a60c22a-8595-43ba-bd32-b1144f4909be"
    }
  }, {
    "fullUrl": "https://madie.cms.gov/Encounter/2ae646a8-c373-470e-bbac-f3ad1cc9a3d2",
    "resource": {
      "resourceType": "Encounter",
      "id": "2ae646a8-c373-470e-bbac-f3ad1cc9a3d2",
      "meta": {
        "profile": [ "http://hl7.org/fhir/us/qicore/StructureDefinition/qicore-encounter" ]
      },
      "status": "finished",
      "class": {
        "system": "http://terminology.hl7.org/CodeSystem/v3-ActCode",
        "code": "EMER",
        "display": "emergency encounter"
      },
      "type": [ {
        "coding": [ {
          "system": "http://snomed.info/sct",
          "code": "4525004"
        } ]
      } ],
      "subject": {
        "reference": "Patient/4402a9b9-3d48-4472-a000-579b7baa88fa"
      },
      "period": {
        "start": "2026-10-18T09:15:00.000+00:00",
        "end": "2026-10-19T08:15:00.000+00:00"
      }
    },
    "request": {
      "method": "PUT",
      "url": "Encounter/2ae646a8-c373-470e-bbac-f3ad1cc9a3d2"
    }
  }, {
    "fullUrl": "https://madie.cms.gov/Patient/4402a9b9-3d48-4472-a000-579b7baa88fa",
    "resource": {
      "resourceType": "Patient",
      "id": "4402a9b9-3d48-4472-a000-579b7baa88fa",
      "meta": {
        "profile": [ "http://hl7.org/fhir/us/qicore/StructureDefinition/qicore-patient" ]
      },
      "extension": [ {
        "url": "http://hl7.org/fhir/us/core/StructureDefinition/us-core-race",
        "extension": [ {
          "url": "ombCategory",
          "valueCoding": {
            "system": "urn:oid:2.16.840.1.113883.6.238",
            "code": "2106-3",
            "display": "White"
          }
        }, {
          "url": "text",
          "valueString": "White"
        } ]
      }, {
        "url": "http://hl7.org/fhir/us/core/StructureDefinition/us-core-ethnicity",
        "extension": [ {
          "url": "ombCategory",
          "valueCoding": {
            "system": "urn:oid:2.16.840.1.113883.6.238",
            "code": "2135-2",
            "display": "Hispanic or Latino"
          }
        }, {
          "url": "text",
          "valueString": "Hispanic or Latino"
        } ]
      }, {
        "url": "http://hl7.org/fhir/us/core/StructureDefinition/us-core-sex",
        "valueCode": "248153007"
      } ],
      "identifier": [ {
        "system": "http://hospital.smarthealthit.org",
        "value": "999999999"
      } ],
      "name": [ {
        "family": "Example",
        "given": [ "Patient" ]
      } ],
      "gender": "female",
      "birthDate": "1956-01-01"
    },
    "request": {
      "method": "PUT",
      "url": "Patient/4402a9b9-3d48-4472-a000-579b7baa88fa"
    }
  }, {
    "fullUrl": "https://madie.cms.gov/Claim/0bcbf212-cb3b-461a-9a9d-613bd00efbfa",
    "resource": {
      "resourceType": "Claim",
      "id": "0bcbf212-cb3b-461a-9a9d-613bd00efbfa",
      "meta": {
        "profile": [ "http://hl7.org/fhir/us/qicore/StructureDefinition/qicore-claim" ]
      },
      "status": "active",
      "type": {
        "coding": [ {
          "system": "http://terminology.hl7.org/CodeSystem/claim-type",
          "code": "institutional",
          "display": "Institutional"
        } ]
      },
      "use": "claim",
      "patient": {
        "reference": "Patient/4402a9b9-3d48-4472-a000-579b7baa88fa"
      },
      "created": "2026-10-22",
      "provider": {
        "reference": "Practitioner/practitioner-1"
      },
      "priority": {
        "coding": [ {
          "system": "http://terminology.hl7.org/CodeSystem/processpriority",
          "code": "normal"
        } ]
      },
      "diagnosis": [ {
        "sequence": 1,
        "diagnosisCodeableConcept": {
          "coding": [ {
            "system": "http://snomed.info/sct",
            "code": "14047009"
          } ]
        }
      } ],
      "insurance": [ {
        "sequence": 1,
        "focal": true,
        "coverage": {
          "reference": "Coverage/coverage-1"
        }
      } ],
      "item": [ {
        "sequence": 1,
        "diagnosisSequence": [ 1, 2 ],
        "productOrService": {
          "coding": [ {
            "system": "http://terminology.hl7.org/CodeSystem/ex-USCLS",
            "code": "1101"
          } ]
        },
        "encounter": [ {
          "reference": "Encounter/5a60c22a-8595-43ba-bd32-b1144f4909be"
        } ]
      } ]
    },
    "request": {
      "method": "PUT",
      "url": "Claim/0bcbf212-cb3b-461a-9a9d-613bd00efbfa"
    }
  }, {
    "fullUrl": "https://madie.cms.gov/Claim/3c749ab9-32c4-4325-8f07-45f17659772c",
    "resource": {
      "resourceType": "Claim",
      "id": "3c749ab9-32c4-4325-8f07-45f17659772c",
      "meta": {
        "profile": [ "http://hl7.org/fhir/us/qicore/StructureDefinition/qicore-claim" ]
      },
      "status": "active",
      "type": {
        "coding": [ {
          "system": "http://terminology.hl7.org/CodeSystem/claim-type",
          "code": "institutional",
          "display": "Institutional"
        } ]
      },
      "use": "claim",
      "patient": {
        "reference": "Patient/4402a9b9-3d48-4472-a000-579b7baa88fa"
      },
      "created": "2026-11-01",
      "provider": {
        "reference": "Practitioner/practitioner-1"
      },
      "priority": {
        "coding": [ {
          "system": "http://terminology.hl7.org/CodeSystem/processpriority",
          "code": "normal"
        } ]
      },
      "diagnosis": [ {
        "sequence": 1,
        "diagnosisCodeableConcept": {
          "coding": [ {
            "system": "http://hl7.org/fhir/sid/icd-10-cm",
            "code": "M80.00XA",
            "display": "Age-related osteoporosis with current pathological fracture, unspecified site, initial encounter for fracture"
          } ]
        }
      } ],
      "insurance": [ {
        "sequence": 1,
        "focal": true,
        "coverage": {
          "reference": "Coverage/coverage-1"
        }
      } ],
      "item": [ {
        "sequence": 1,
        "diagnosisSequence": [ 1, 2 ],
        "productOrService": {
          "coding": [ {
            "system": "http://terminology.hl7.org/CodeSystem/ex-USCLS",
            "code": "1101"
          } ]
        },
        "encounter": [ {
          "reference": "Encounter/5a60c22a-8595-43ba-bd32-b1144f4909be"
        } ]
      } ]
    },
    "request": {
      "method": "PUT",
      "url": "Claim/3c749ab9-32c4-4325-8f07-45f17659772c"
    }
  }, {
    "fullUrl": "https://madie.cms.gov/MedicationRequest/3a9d8835-43d4-4337-aa18-c357ecc7caf3",
    "resource": {
      "resourceType": "MedicationRequest",
      "id": "3a9d8835-43d4-4337-aa18-c357ecc7caf3",
      "meta": {
        "profile": [ "http://hl7.org/fhir/us/qicore/StructureDefinition/qicore-medicationrequest" ]
      },
      "status": "active",
      "intent": "plan",
      "category": [ {
        "coding": [ {
          "system": "http://terminology.hl7.org/CodeSystem/medicationrequest-category",
          "code": "community",
          "display": "Community"
        } ]
      } ],
      "medicationCodeableConcept": {
        "coding": [ {
          "system": "http://www.nlm.nih.gov/research/umls/rxnorm",
          "code": "1010600"
        } ]
      },
      "subject": {
        "reference": "Patient/4402a9b9-3d48-4472-a000-579b7baa88fa"
      },
      "authoredOn": "2026-10-15",
      "requester": {
        "reference": "Practitioner/practitioner-1"
      },
      "dispenseRequest": {
        "quantity": {
          "value": 14,
          "unit": "tablet",
          "system": "http://unitsofmeasure.org",
          "code": "{tablet}"
        },
        "expectedSupplyDuration": {
          "value": 14,
          "unit": "days",
          "system": "http://unitsofmeasure.org",
          "code": "d"
        }
      }
    },
    "request": {
      "method": "PUT",
      "url": "MedicationRequest/3a9d8835-43d4-4337-aa18-c357ecc7caf3"
    }
  }, {
    "fullUrl": "https://madie.cms.gov/Observation/0ad3ee26-7c3a-48ae-a490-839ac7e0d98f",
    "resource": {
      "resourceType": "Observation",
      "id": "0ad3ee26-7c3a-48ae-a490-839ac7e0d98f",
      "meta": {
        "profile": [ "http://hl7.org/fhir/us/core/StructureDefinition/us-core-bmi" ]
      },
      "status": "final",
      "category": [ {
        "coding": [ {
          "system": "http://terminology.hl7.org/CodeSystem/observation-category",
          "code": "vital-signs",
          "display": "Vital Signs"
        } ]
      } ],
      "code": {
        "coding": [ {
          "system": "http://loinc.org",
          "code": "39156-5",
          "display": "Body mass index (BMI) [Ratio]"
        } ],
        "text": "BMI"
      },
      "subject": {
        "reference": "Patient/4402a9b9-3d48-4472-a000-579b7baa88fa"
      },
      "effectiveDateTime": "2026-10-20T08:00:00.000+00:00",
      "valueQuantity": {
        "value": 28.3,
        "unit": "kg/m2",
        "system": "http://unitsofmeasure.org",
        "code": "kg/m2"
      }
    },
    "request": {
      "method": "PUT",
      "url": "Observation/0ad3ee26-7c3a-48ae-a490-839ac7e0d98f"
    }
  }, {
    "fullUrl": "https://madie.cms.gov/Practitioner/65124cf5-82f1-4cd0-bfb7-2e6f31d82de0",
    "resource": {
      "resourceType": "Practitioner",
      "id": "65124cf5-82f1-4cd0-bfb7-2e6f31d82de0",
      "identifier": [ {
        "system": "http://www.cms.gov/identifiers/pracitioners",
        "value": "P12345"
      } ],
      "name": [ {
        "use": "official",
        "family": "Smith",
        "given": [ "John" ]
      } ],
      "qualification": [ {
        "identifier": [ {
          "system": "http://hl7.org/fhir/sid/us-npi",
          "value": "1234567890"
        } ],
        "code": {
          "coding": [ {
            "system": "http://terminology.hl7.org/CodeSystem/v2-0203",
            "code": "MD",
            "display": "Medical License number"
          } ]
        }
      } ]
    },
    "request": {
      "method": "PUT",
      "url": "Practitioner/65124cf5-82f1-4cd0-bfb7-2e6f31d82de0"
    }
  }, {
    "fullUrl": "https://madie.cms.gov/Coverage/1de2d6ea-e0d2-4d7d-99e1-fe1bdd417b82",
    "resource": {
      "resourceType": "Coverage",
      "id": "1de2d6ea-e0d2-4d7d-99e1-fe1bdd417b82",
      "status": "active",
      "beneficiary": {
        "reference": "Patient/4402a9b9-3d48-4472-a000-579b7baa88fa"
      },
      "payor": [ {
        "reference": "Organization/435c36ea-0728-4ddb-97d8-75cd6fe9b8a8"
      } ]
    },
    "request": {
      "method": "PUT",
      "url": "Coverage/1de2d6ea-e0d2-4d7d-99e1-fe1bdd417b82"
    }
  }, {
    "fullUrl": "https://madie.cms.gov/Organization/435c36ea-0728-4ddb-97d8-75cd6fe9b8a8",
    "resource": {
      "resourceType": "Organization",
      "id": "435c36ea-0728-4ddb-97d8-75cd6fe9b8a8",
      "identifier": [ {
        "system": "http://cms.gov/insurance-ids",
        "value": "AET12345"
      } ],
      "type": [ {
        "coding": [ {
          "system": "http://terminology.hl7.org/CodeSystem/organization-type",
          "code": "prov",
          "display": "Healthcare Provider"
        } ]
      } ],
      "name": "Aetna Insurance",
      "telecom": [ {
        "system": "phone",
        "value": "+1-800-123-4567"
      } ],
      "address": [ {
        "line": [ "123 Main Street" ],
        "city": "Cityville",
        "state": "CA",
        "postalCode": "12345",
        "country": "USA"
      } ]
    },
    "request": {
      "method": "PUT",
      "url": "Organization/435c36ea-0728-4ddb-97d8-75cd6fe9b8a8"
    }
  }, {
    "fullUrl": "https://madie.cms.gov/MeasureReport/4edc3d21-e34c-41cb-b2d3-e69976dd8635",
    "resource": {
      "resourceType": "MeasureReport",
      "id": "4edc3d21-e34c-41cb-b2d3-e69976dd8635",
      "meta": {
        "profile": [ "http://hl7.org/fhir/us/cqfmeasures/StructureDefinition/test-case-cqfm" ]
      },
      "contained": [ {
        "resourceType": "Parameters",
        "id": "aa6c22d4-db72-4eba-9ade-0683452ab4ae-parameters",
        "parameter": [ {
          "name": "subject",
          "valueString": "4402a9b9-3d48-4472-a000-579b7baa88fa"
        } ]
      } ],
      "extension": [ {
        "url": "http://hl7.org/fhir/StructureDefinition/cqf-inputParameters",
        "valueReference": {
          "reference": "#aa6c22d4-db72-4eba-9ade-0683452ab4ae-parameters"
        }
      }, {
        "url": "http://hl7.org/fhir/us/cqfmeasures/StructureDefinition/cqfm-testCaseDescription",
        "valueMarkdown": "RVariable Encounter With Opioid Plan At Admission"
      } ],
      "modifierExtension": [ {
        "url": "http://hl7.org/fhir/us/cqfmeasures/StructureDefinition/cqfm-isTestCase",
        "valueBoolean": true
      } ],
      "status": "complete",
      "type": "individual",
      "measure": "https://madie.cms.gov/Measure/CMS1017FHIRHHFI",
      "period": {
        "start": "2026-01-01",
        "end": "2026-12-31"
      },
      "group": [ {
        "id": "Group_1",
        "population": [ {
          "id": "InitialPopulation_1",
          "code": {
            "coding": [ {
              "system": "http://terminology.hl7.org/CodeSystem/measure-population",
              "code": "initial-population",
              "display": "Initial Population"
            } ]
          },
          "count": 1
        }, {
          "id": "Denominator_1",
          "code": {
            "coding": [ {
              "system": "http://terminology.hl7.org/CodeSystem/measure-population",
              "code": "denominator",
              "display": "Denominator"
            } ]
          },
          "count": 1
        }, {
          "id": "DenominatorExclusion_1",
          "code": {
            "coding": [ {
              "system": "http://terminology.hl7.org/CodeSystem/measure-population",
              "code": "denominator-exclusion",
              "display": "Denominator Exclusion"
            } ]
          },
          "count": 0
        }, {
          "id": "Numerator_1",
          "code": {
            "coding": [ {
              "system": "http://terminology.hl7.org/CodeSystem/measure-population",
              "code": "numerator",
              "display": "Numerator"
            } ]
          },
          "count": 1
        }, {
          "id": "NumeratorExclusion_1",
          "code": {
            "coding": [ {
              "system": "http://terminology.hl7.org/CodeSystem/measure-population",
              "code": "numerator-exclusion",
              "display": "Numerator Exclusion"
            } ]
          },
          "count": 0
        }, {
          "id": "MeasureObservation_1_1_1",
          "code": {
            "coding": [ {
              "system": "http://terminology.hl7.org/CodeSystem/measure-population",
              "code": "measure-observation",
              "display": "Measure Observation"
            } ]
          },
          "count": 2
        }, {
          "id": "MeasureObservation_1_2_1",
          "code": {
            "coding": [ {
              "system": "http://terminology.hl7.org/CodeSystem/measure-population",
              "code": "measure-observation",
              "display": "Measure Observation"
            } ]
          },
          "count": 1
        } ],
        "measureScore": {
          "value": 0.0
        }
      } ],
      "evaluatedResource": [ {
        "reference": "Encounter/5a60c22a-8595-43ba-bd32-b1144f4909be"
      }, {
        "reference": "Encounter/2ae646a8-c373-470e-bbac-f3ad1cc9a3d2"
      }, {
        "reference": "Patient/4402a9b9-3d48-4472-a000-579b7baa88fa"
      }, {
        "reference": "Claim/0bcbf212-cb3b-461a-9a9d-613bd00efbfa"
      }, {
        "reference": "Claim/3c749ab9-32c4-4325-8f07-45f17659772c"
      }, {
        "reference": "MedicationRequest/3a9d8835-43d4-4337-aa18-c357ecc7caf3"
      }, {
        "reference": "Observation/0ad3ee26-7c3a-48ae-a490-839ac7e0d98f"
      }, {
        "reference": "Practitioner/65124cf5-82f1-4cd0-bfb7-2e6f31d82de0"
      }, {
        "reference": "Coverage/1de2d6ea-e0d2-4d7d-99e1-fe1bdd417b82"
      }, {
        "reference": "Organization/435c36ea-0728-4ddb-97d8-75cd6fe9b8a8"
      } ]
    },
    "request": {
      "method": "PUT",
      "url": "MeasureReport/4edc3d21-e34c-41cb-b2d3-e69976dd8635"
    }
  } ]
}