{
  "resourceType": "Bundle",
  "id": "63ec0967ccb3770120fe9c8f",
  "type": "transaction",
  "entry": [ {
    "fullUrl": "https://madie.cms.gov/Patient/3e3540e3-8c5b-4357-9ca3-3b97d24a8b35",
    "resource": {
      "resourceType": "Patient",
      "id": "3e3540e3-8c5b-4357-9ca3-3b97d24a8b35",
      "meta": {
        "profile": [ "http://hl7.org/fhir/us/qicore/StructureDefinition/qicore-patient" ]
      },
      "text": {
        "status": "generated",
        "div": "<div xmlns=\"http://www.w3.org/1999/xhtml\"><div class=\"hapiHeaderText\">OnAdmit_relevantPeriod <b>HRPASS </b></div><table class=\"hapiPropertyTable\"><tbody><tr><td>Identifier</td><td>849bc1d9a88035639bba704b9d791fc277243ded96eb819b2df3b340c5bc6669</td></tr><tr><td>Date of birth</td><td><span>15 June 1956</span></td></tr></tbody></table></div>"
      },
      "extension": [ {
        "url": "http://hl7.org/fhir/us/core/StructureDefinition/us-core-race",
        "extension": [ {
          "url": "ombCategory",
          "valueCoding": {
            "system": "urn:oid:2.16.840.1.113883.6.238",
            "code": "2106-3",
            "display": "White",
            "userSelected": true
          }
        }, {
          "url": "text",
          "valueString": "White"
        } ]
      }, {
        "url": "http://hl7.org/fhir/us/core/StructureDefinition/us-core-ethnicity",
        "extension": [ {
          "url": "ombCategory",
          "valueCoding": {
            "system": "urn:oid:2.16.840.1.113883.6.238",
            "code": "2135-2",
            "display": "Hispanic or Latino",
            "userSelected": true
          }
        }, {
          "url": "text",
          "valueString": "Hispanic or Latino"
        } ]
      }, {
        "url": "http://hl7.org/fhir/us/core/StructureDefinition/us-core-sex",
        "valueCode": "248153007"
      } ],
      "identifier": [ {
        "type": {
          "coding": [ {
            "system": "http://terminology.hl7.org/CodeSystem/v2-0203",
            "code": "MR"
          } ]
        },
        "system": "https://bonnie-fhir.healthit.gov/",
        "value": "63ec0967ccb3770120fe9c8f"
      } ],
      "active": true,
      "name": [ {
        "use": "usual",
        "family": "HeartRatePass",
        "given": [ "ExamOnAdmit" ]
      } ],
      "gender": "male",
      "birthDate": "1957-06-15"
    },
    "request": {
      "method": "PUT",
      "url": "Patient/3e3540e3-8c5b-4357-9ca3-3b97d24a8b35"
    }
  }, {
    "fullUrl": "https://madie.cms.gov/Encounter/40c0571b-cda4-4de6-b518-bc8356dbf88f",
    "resource": {
      "resourceType": "Encounter",
      "id": "40c0571b-cda4-4de6-b518-bc8356dbf88f",
      "meta": {
        "profile": [ "http://hl7.org/fhir/us/qicore/StructureDefinition/qicore-encounter" ]
      },
      "status": "finished",
      "class": {
        "system": "http://terminology.hl7.org/CodeSystem/v3-ActCode",
        "code": "ACUTE",
        "display": "acute",
        "userSelected": true
      },
      "type": [ {
        "coding": [ {
          "system": "http://snomed.info/sct",
          "code": "183452005"
        } ]
      } ],
      "subject": {
        "reference": "Patient/3e3540e3-8c5b-4357-9ca3-3b97d24a8b35"
      },
      "period": {
        "start": "2026-07-21T08:15:00.000+00:00",
        "end": "2026-07-22T08:20:00.000+00:00"
      },
      "length": {
        "value": 1,
        "unit": "days"
      }
    },
    "request": {
      "method": "PUT",
      "url": "Encounter/40c0571b-cda4-4de6-b518-bc8356dbf88f"
    }
  }, {
    "fullUrl": "https://madie.cms.gov/Coverage/010a5843-f029-413d-b43e-960fb1806f69",
    "resource": {
      "resourceType": "Coverage",
      "id": "010a5843-f029-413d-b43e-960fb1806f69",
      "meta": {
        "profile": [ "http://hl7.org/fhir/us/qicore/StructureDefinition/qicore-coverage" ]
      },
      "status": "active",
      "type": {
        "coding": [ {
          "system": "https://nahdo.org/sopt",
          "version": "1.0.1",
          "code": "1",
          "display": "MEDICARE",
          "userSelected": true
        } ]
      },
      "subscriberId": "AB9876",
      "beneficiary": {
        "reference": "Patient/3e3540e3-8c5b-4357-9ca3-3b97d24a8b35"
      },
      "relationship": {
        "coding": [ {
          "system": "http://terminology.hl7.org/CodeSystem/subscriber-relationship",
          "code": "self"
        } ]
      },
      "period": {
        "start": "2025-01-01T06:00:00.000+00:00",
        "end": "2028-01-01T11:06:01.000+00:00"
      },
      "payor": [ {
        "reference": "Organization/7da51ead-2f50-4a84-9dba-662aaae09579"
      } ]
    },
    "request": {
      "method": "PUT",
      "url": "Coverage/010a5843-f029-413d-b43e-960fb1806f69"
    }
  }, {
    "fullUrl": "https://madie.cms.gov/Observation/a8e39e61-fcc8-40d5-8f32-3973f4705357",
    "resource": {
      "resourceType": "Observation",
      "id": "a8e39e61-fcc8-40d5-8f32-3973f4705357",
      "meta": {
        "profile": [ "http://hl7.org/fhir/us/core/StructureDefinition/us-core-heart-rate" ]
      },
      "status": "final",
      "category": [ {
        "coding": [ {
          "system": "http://terminology.hl7.org/CodeSystem/observation-category",
          "code": "vital-signs",
          "display": "Vital Signs",
          "userSelected": true
        } ]
      } ],
      "code": {
        "coding": [ {
          "system": "http://loinc.org",
          "code": "8867-4",
          "display": "Heart rate"
        } ]
      },
      "subject": {
        "reference": "Patient/3e3540e3-8c5b-4357-9ca3-3b97d24a8b35"
      },
      "effectiveDateTime": "2026-07-21T08:14:00.000+00:00",
      "issued": "2026-07-21T08:14:00.000+00:00",
      "valueQuantity": {
        "value": 80,
        "unit": "/min",
        "system": "http://unitsofmeasure.org",
        "code": "/min"
      }
    },
    "request": {
      "method": "PUT",
      "url": "Observation/a8e39e61-fcc8-40d5-8f32-3973f4705357"
    }
  }, {
    "fullUrl": "https://madie.cms.gov/Organization/7da51ead-2f50-4a84-9dba-662aaae09579",
    "resource": {
      "resourceType": "Organization",
      "id": "7da51ead-2f50-4a84-9dba-662aaae09579",
      "meta": {
        "profile": [ "http://hl7.org/fhir/us/qicore/StructureDefinition/qicore-organization" ]
      },
      "identifier": [ {
        "use": "temp",
        "system": "urn:oid:2.16.840.1.113883.4.4",
        "value": "21-3259825"
      } ],
      "active": true,
      "type": [ {
        "coding": [ {
          "system": "http://terminology.hl7.org/CodeSystem/organization-type",
          "code": "pay",
          "display": "Payer"
        } ]
      } ],
      "name": "Blue Cross Blue Shield of Texas",
      "telecom": [ {
        "system": "phone",
        "value": "(+1) 972-766-6900"
      } ],
      "address": [ {
        "use": "billing",
        "type": "postal",
        "line": [ "P.O. Box 660044" ],
        "city": "Dallas",
        "state": "TX",
        "postalCode": "75266-0044",
        "country": "USA"
      } ]
    },
    "request": {
      "method": "PUT",
      "url": "Organization/7da51ead-2f50-4a84-9dba-662aaae09579"
    }
  }, {
    "fullUrl": "https://madie.cms.gov/Practitioner/4dac2e7a-f83d-4fbb-ae28-3a1a3c333cde",
    "resource": {
      "resourceType": "Practitioner",
      "id": "4dac2e7a-f83d-4fbb-ae28-3a1a3c333cde",
      "meta": {
        "profile": [ "http://hl7.org/fhir/us/qicore/StructureDefinition/qicore-practitioner" ]
      },
      "identifier": [ {
        "system": "http://hl7.org/fhir/sid/us-npi",
        "value": "0723660813"
      } ],
      "name": [ {
        "family": "Evil",
        "prefix": [ "Dr" ]
      } ]
    },
    "request": {
      "method": "PUT",
      "url": "Practitioner/4dac2e7a-f83d-4fbb-ae28-3a1a3c333cde"
    }
  }, {
    "fullUrl": "https://madie.cms.gov/MeasureReport/a6a5ff09-2ebe-4777-a4ec-5616132e44de",
    "resource": {
      "resourceType": "MeasureReport",
      "id": "a6a5ff09-2ebe-4777-a4ec-5616132e44de",
      "meta": {
        "profile": [ "http://hl7.org/fhir/us/cqfmeasures/StructureDefinition/test-case-cqfm" ]
      },
      "contained": [ {
        "resourceType": "Parameters",
        "id": "71f121fd-ddee-49f8-aee8-925325de1830-parameters",
        "parameter": [ {
          "name": "subject",
          "valueString": "3e3540e3-8c5b-4357-9ca3-3b97d24a8b35"
        } ]
      } ],
      "extension": [ {
        "url": "http://hl7.org/fhir/StructureDefinition/cqf-inputParameters",
        "valueReference": {
          "reference": "#71f121fd-ddee-49f8-aee8-925325de1830-parameters"
        }
      }, {
        "url": "http://hl7.org/fhir/us/cqfmeasures/StructureDefinition/cqfm-testCaseDescription",
        "valueMarkdown": "Patient has heart rate exam 1 minute before admittance. \n "
      } ],
      "modifierExtension": [ {
        "url": "http://hl7.org/fhir/us/cqfmeasures/StructureDefinition/cqfm-isTestCase",
        "valueBoolean": true
      } ],
      "status": "complete",
      "type": "individual",
      "measure": "https://madie.cms.gov/Measure/CMSFHIR529HybridHospitalWideReadmission",
      "period": {
        "start": "2026-07-01",
        "end": "2027-06-30"
      },
      "group": [ {
        "id": "Group_1",
        "population": [ {
          "id": "InitialPopulation_1",
          "code": {
            "coding": [ {
              "system": "http://terminology.hl7.org/CodeSystem/measure-population",
              "code": "initial-population",
              "display": "Initial Population"
            } ]
          },
          "count": 1
        } ],
        "measureScore": {
          "value": 0.0
        }
      } ],
      "evaluatedResource": [ {
        "reference": "Patient/3e3540e3-8c5b-4357-9ca3-3b97d24a8b35"
      }, {
        "reference": "Encounter/40c0571b-cda4-4de6-b518-bc8356dbf88f"
      }, {
        "reference": "Coverage/010a5843-f029-413d-b43e-960fb1806f69"
      }, {
        "reference": "Observation/a8e39e61-fcc8-40d5-8f32-3973f4705357"
      }, {
        "reference": "Organization/7da51ead-2f50-4a84-9dba-662aaae09579"
      }, {
        "reference": "Practitioner/4dac2e7a-f83d-4fbb-ae28-3a1a3c333cde"
      } ]
    },
    "request": {
      "method": "PUT",
      "url": "MeasureReport/a6a5ff09-2ebe-4777-a4ec-5616132e44de"
    }
  } ]
}