{
  "resourceType": "Bundle",
  "id": "DENOMPass-RVNeurologicDisorderDxPOA",
  "type": "transaction",
  "entry": [ {
    "fullUrl": "https://madie.cms.gov/Claim/f8c6b2c2-3bb7-473d-a3f4-fcc906f54fb0",
    "resource": {
      "resourceType": "Claim",
      "id": "f8c6b2c2-3bb7-473d-a3f4-fcc906f54fb0",
      "meta": {
        "profile": [ "http://hl7.org/fhir/us/qicore/StructureDefinition/qicore-claim" ]
      },
      "status": "active",
      "type": {
        "coding": [ {
          "system": "http://terminology.hl7.org/CodeSystem/claim-type",
          "code": "professional",
          "display": "Professional"
        } ]
      },
      "use": "claim",
      "patient": {
        "reference": "Patient/9897529f-07ba-42c6-a7b2-5d856a925a6a"
      },
      "created": "2026-12-12",
      "provider": {
        "reference": "Practitioner/112e8663-0441-4862-a4c4-24e9046bd1bf"
      },
      "priority": {
        "coding": [ {
          "system": "http://terminology.hl7.org/CodeSystem/processpriority",
          "code": "normal"
        } ]
      },
      "diagnosis": [ {
        "sequence": 1,
        "diagnosisCodeableConcept": {
          "coding": [ {
            "system": "http://hl7.org/fhir/sid/icd-10-cm",
            "code": "G11.11"
          } ]
        },
        "onAdmission": {
          "coding": [ {
            "system": "https://www.cms.gov/Medicare/Medicare-Fee-for-Service-Payment/HospitalAcqCond/Coding",
            "code": "Y"
          } ]
        }
      } ],
      "insurance": [ {
        "sequence": 1,
        "focal": true,
        "coverage": {
          "reference": "Coverage/da063b2a-bd87-43d6-8e9f-507352356ca6"
        }
      } ],
      "item": [ {
        "sequence": 1,
        "diagnosisSequence": [ 1, 2 ],
        "productOrService": {
          "coding": [ {
            "system": "http://terminology.hl7.org/CodeSystem/ex-USCLS",
            "code": "1101"
          } ]
        },
        "encounter": [ {
          "reference": "Encounter/5cc743ba-96b0-4368-8f94-bfc10e8f995f"
        } ]
      } ]
    },
    "request": {
      "method": "PUT",
      "url": "Claim/f8c6b2c2-3bb7-473d-a3f4-fcc906f54fb0"
    }
  }, {
    "fullUrl": "https://madie.cms.gov/Patient/9897529f-07ba-42c6-a7b2-5d856a925a6a",
    "resource": {
      "resourceType": "Patient",
      "id": "9897529f-07ba-42c6-a7b2-5d856a925a6a",
      "meta": {
        "profile": [ "http://hl7.org/fhir/us/qicore/StructureDefinition/qicore-patient" ]
      },
      "extension": [ {
        "url": "http://hl7.org/fhir/us/core/StructureDefinition/us-core-race",
        "extension": [ {
          "url": "ombCategory",
          "valueCoding": {
            "system": "urn:oid:2.16.840.1.113883.6.238",
            "code": "1002-5",
            "display": "American Indian or Alaska Native",
            "userSelected": true
          }
        }, {
          "url": "text",
          "valueString": "American Indian or Alaska Native"
        } ]
      }, {
        "url": "http://hl7.org/fhir/us/core/StructureDefinition/us-core-ethnicity",
        "extension": [ {
          "url": "ombCategory",
          "valueCoding": {
            "system": "urn:oid:2.16.840.1.113883.6.238",
            "code": "2135-2",
            "display": "Hispanic or Latino",
            "userSelected": true
          }
        }, {
          "url": "text",
          "valueString": "Hispanic or Latino"
        } ]
      } ],
      "identifier": [ {
        "type": {
          "coding": [ {
            "system": "http://terminology.hl7.org/CodeSystem/v2-0203",
            "code": "MR"
          } ]
        },
        "system": "https://bonnie-fhir.healthit.gov/",
        "value": "61152a3b98086b7a79cbd7c1"
      } ],
      "active": true,
      "name": [ {
        "use": "usual",
        "family": "DENOMPass",
        "given": [ "RVDeliriumDxPOA" ]
      } ],
      "gender": "female",
      "birthDate": "1964-12-11"
    },
    "request": {
      "method": "PUT",
      "url": "Patient/9897529f-07ba-42c6-a7b2-5d856a925a6a"
    }
  }, {
    "fullUrl": "https://madie.cms.gov/Encounter/5cc743ba-96b0-4368-8f94-bfc10e8f995f",
    "resource": {
      "resourceType": "Encounter",
      "id": "5cc743ba-96b0-4368-8f94-bfc10e8f995f",
      "meta": {
        "profile": [ "http://hl7.org/fhir/us/qicore/StructureDefinition/qicore-encounter" ]
      },
      "status": "finished",
      "class": {
        "system": "http://terminology.hl7.org/CodeSystem/v3-ActCode",
        "code": "IMP",
        "display": "inpatient encounter"
      },
      "type": [ {
        "coding": [ {
          "system": "http://snomed.info/sct",
          "code": "183452005",
          "display": "Emergency hospital admission"
        } ]
      } ],
      "subject": {
        "reference": "Patient/9897529f-07ba-42c6-a7b2-5d856a925a6a"
      },
      "period": {
        "start": "2026-11-12T08:00:00.000+00:00",
        "end": "2026-11-18T08:01:00.000+00:00"
      },
      "length": {
        "value": 6,
        "unit": "days"
      }
    },
    "request": {
      "method": "PUT",
      "url": "Encounter/5cc743ba-96b0-4368-8f94-bfc10e8f995f"
    }
  }, {
    "fullUrl": "https://madie.cms.gov/Practitioner/112e8663-0441-4862-a4c4-24e9046bd1bf",
    "resource": {
      "resourceType": "Practitioner",
      "id": "112e8663-0441-4862-a4c4-24e9046bd1bf",
      "identifier": [ {
        "system": "http://www.cms.gov/identifiers/pracitioners",
        "value": "P12345"
      } ],
      "name": [ {
        "use": "official",
        "family": "Smith",
        "given": [ "John" ]
      } ],
      "qualification": [ {
        "identifier": [ {
          "system": "http://hl7.org/fhir/sid/us-npi",
          "value": "1234567890"
        } ],
        "code": {
          "coding": [ {
            "system": "http://terminology.hl7.org/CodeSystem/v2-0203",
            "code": "MD",
            "display": "Medical License number"
          } ]
        }
      } ]
    },
    "request": {
      "method": "PUT",
      "url": "Practitioner/112e8663-0441-4862-a4c4-24e9046bd1bf"
    }
  }, {
    "fullUrl": "https://madie.cms.gov/Coverage/da063b2a-bd87-43d6-8e9f-507352356ca6",
    "resource": {
      "resourceType": "Coverage",
      "id": "da063b2a-bd87-43d6-8e9f-507352356ca6",
      "status": "active",
      "beneficiary": {
        "reference": "Patient/9897529f-07ba-42c6-a7b2-5d856a925a6a"
      },
      "payor": [ {
        "reference": "Organization/348d8291-34af-465b-8645-2d6dc3a87d9d"
      } ]
    },
    "request": {
      "method": "PUT",
      "url": "Coverage/da063b2a-bd87-43d6-8e9f-507352356ca6"
    }
  }, {
    "fullUrl": "https://madie.cms.gov/Organization/348d8291-34af-465b-8645-2d6dc3a87d9d",
    "resource": {
      "resourceType": "Organization",
      "id": "348d8291-34af-465b-8645-2d6dc3a87d9d",
      "identifier": [ {
        "system": "http://cms.gov/insurance-ids",
        "value": "AET12345"
      } ],
      "type": [ {
        "coding": [ {
          "system": "http://terminology.hl7.org/CodeSystem/organization-type",
          "code": "prov",
          "display": "Healthcare Provider"
        } ]
      } ],
      "name": "Aetna Insurance",
      "telecom": [ {
        "system": "phone",
        "value": "+1-800-123-4567"
      } ],
      "address": [ {
        "line": [ "123 Main Street" ],
        "city": "Cityville",
        "state": "CA",
        "postalCode": "12345",
        "country": "USA"
      } ]
    },
    "request": {
      "method": "PUT",
      "url": "Organization/348d8291-34af-465b-8645-2d6dc3a87d9d"
    }
  }, {
    "fullUrl": "https://madie.cms.gov/MeasureReport/b0b9a6c5-a0cb-4727-8d74-e0ad4418948e",
    "resource": {
      "resourceType": "MeasureReport",
      "id": "b0b9a6c5-a0cb-4727-8d74-e0ad4418948e",
      "meta": {
        "profile": [ "http://hl7.org/fhir/us/cqfmeasures/StructureDefinition/test-case-cqfm" ]
      },
      "contained": [ {
        "resourceType": "Parameters",
        "id": "3ddc8988-336e-4876-94bf-7b9a53e19827-parameters",
        "parameter": [ {
          "name": "subject",
          "valueString": "9897529f-07ba-42c6-a7b2-5d856a925a6a"
        } ]
      } ],
      "extension": [ {
        "url": "http://hl7.org/fhir/StructureDefinition/cqf-inputParameters",
        "valueReference": {
          "reference": "#3ddc8988-336e-4876-94bf-7b9a53e19827-parameters"
        }
      }, {
        "url": "http://hl7.org/fhir/us/cqfmeasures/StructureDefinition/cqfm-testCaseDescription",
        "valueMarkdown": "Encounter with Neurologic Disorder dx POA = Y. Meets RV"
      } ],
      "modifierExtension": [ {
        "url": "http://hl7.org/fhir/us/cqfmeasures/StructureDefinition/cqfm-isTestCase",
        "valueBoolean": true
      } ],
      "status": "complete",
      "type": "individual",
      "measure": "https://madie.cms.gov/Measure/CMS1017FHIRHHFI",
      "period": {
        "start": "2026-01-01",
        "end": "2026-12-31"
      },
      "group": [ {
        "id": "Group_1",
        "population": [ {
          "id": "InitialPopulation_1",
          "code": {
            "coding": [ {
              "system": "http://terminology.hl7.org/CodeSystem/measure-population",
              "code": "initial-population",
              "display": "Initial Population"
            } ]
          },
          "count": 1
        }, {
          "id": "Denominator_1",
          "code": {
            "coding": [ {
              "system": "http://terminology.hl7.org/CodeSystem/measure-population",
              "code": "denominator",
              "display": "Denominator"
            } ]
          },
          "count": 1
        }, {
          "id": "DenominatorExclusion_1",
          "code": {
            "coding": [ {
              "system": "http://terminology.hl7.org/CodeSystem/measure-population",
              "code": "denominator-exclusion",
              "display": "Denominator Exclusion"
            } ]
          },
          "count": 0
        }, {
          "id": "Numerator_1",
          "code": {
            "coding": [ {
              "system": "http://terminology.hl7.org/CodeSystem/measure-population",
              "code": "numerator",
              "display": "Numerator"
            } ]
          },
          "count": 0
        }, {
          "id": "NumeratorExclusion_1",
          "code": {
            "coding": [ {
              "system": "http://terminology.hl7.org/CodeSystem/measure-population",
              "code": "numerator-exclusion",
              "display": "Numerator Exclusion"
            } ]
          },
          "count": 0
        }, {
          "id": "MeasureObservation_1_1_1",
          "code": {
            "coding": [ {
              "system": "http://terminology.hl7.org/CodeSystem/measure-population",
              "code": "measure-observation",
              "display": "Measure Observation"
            } ]
          },
          "count": 6
        } ],
        "measureScore": {
          "value": 0.0
        }
      } ],
      "evaluatedResource": [ {
        "reference": "Claim/f8c6b2c2-3bb7-473d-a3f4-fcc906f54fb0"
      }, {
        "reference": "Patient/9897529f-07ba-42c6-a7b2-5d856a925a6a"
      }, {
        "reference": "Encounter/5cc743ba-96b0-4368-8f94-bfc10e8f995f"
      }, {
        "reference": "Practitioner/112e8663-0441-4862-a4c4-24e9046bd1bf"
      }, {
        "reference": "Coverage/da063b2a-bd87-43d6-8e9f-507352356ca6"
      }, {
        "reference": "Organization/348d8291-34af-465b-8645-2d6dc3a87d9d"
      } ]
    },
    "request": {
      "method": "PUT",
      "url": "MeasureReport/b0b9a6c5-a0cb-4727-8d74-e0ad4418948e"
    }
  } ]
}