{
  "resourceType": "Bundle",
  "id": "DENEXPass-Enc1FallPOAEnc2FallNPOAAndInjuryNPOA-bundle",
  "type": "transaction",
  "entry": [ {
    "fullUrl": "https://madie.cms.gov/Claim/12a3fc02-ffbd-4cf9-9ad1-e2a7b16ffd08",
    "resource": {
      "resourceType": "Claim",
      "id": "12a3fc02-ffbd-4cf9-9ad1-e2a7b16ffd08",
      "meta": {
        "profile": [ "http://hl7.org/fhir/us/qicore/StructureDefinition/qicore-claim" ]
      },
      "status": "active",
      "type": {
        "coding": [ {
          "system": "http://terminology.hl7.org/CodeSystem/claim-type",
          "code": "professional",
          "display": "Professional"
        } ]
      },
      "use": "claim",
      "patient": {
        "reference": "Patient/404570c9-b21f-4fa2-be5d-6d02c910fea6"
      },
      "created": "2026-11-12",
      "provider": {
        "reference": "Practitioner/8c3745b7-74f0-47ef-8472-85891796b2a7"
      },
      "priority": {
        "coding": [ {
          "system": "http://terminology.hl7.org/CodeSystem/processpriority",
          "code": "normal"
        } ]
      },
      "diagnosis": [ {
        "sequence": 1,
        "diagnosisCodeableConcept": {
          "coding": [ {
            "system": "http://hl7.org/fhir/sid/icd-10-cm",
            "code": "W01.0XXA"
          } ]
        },
        "onAdmission": {
          "coding": [ {
            "system": "https://www.cms.gov/Medicare/Medicare-Fee-for-Service-Payment/HospitalAcqCond/Coding",
            "code": "Y"
          } ]
        }
      } ],
      "insurance": [ {
        "sequence": 1,
        "focal": true,
        "coverage": {
          "reference": "Coverage/be788bb6-6c8f-4c23-8fcf-f9046368846b"
        }
      } ],
      "item": [ {
        "sequence": 1,
        "diagnosisSequence": [ 1, 2 ],
        "productOrService": {
          "coding": [ {
            "system": "http://terminology.hl7.org/CodeSystem/ex-USCLS",
            "code": "1101"
          } ]
        },
        "encounter": [ {
          "reference": "Encounter/DENEXPass-Enc1FallPOAEnc2FallNPOAAndInjuryNPOA-2"
        } ]
      } ]
    },
    "request": {
      "method": "PUT",
      "url": "Claim/12a3fc02-ffbd-4cf9-9ad1-e2a7b16ffd08"
    }
  }, {
    "fullUrl": "https://madie.cms.gov/Claim/0a8a84c6-97b2-43c3-b885-1b5bd576933d",
    "resource": {
      "resourceType": "Claim",
      "id": "0a8a84c6-97b2-43c3-b885-1b5bd576933d",
      "meta": {
        "profile": [ "http://hl7.org/fhir/us/qicore/StructureDefinition/qicore-claim" ]
      },
      "status": "active",
      "type": {
        "coding": [ {
          "system": "http://terminology.hl7.org/CodeSystem/claim-type",
          "code": "professional",
          "display": "Professional"
        } ]
      },
      "use": "claim",
      "patient": {
        "reference": "Patient/404570c9-b21f-4fa2-be5d-6d02c910fea6"
      },
      "created": "2026-11-12",
      "provider": {
        "reference": "Practitioner/8c3745b7-74f0-47ef-8472-85891796b2a7"
      },
      "priority": {
        "coding": [ {
          "system": "http://terminology.hl7.org/CodeSystem/processpriority",
          "code": "normal"
        } ]
      },
      "diagnosis": [ {
        "sequence": 1,
        "diagnosisCodeableConcept": {
          "coding": [ {
            "system": "http://hl7.org/fhir/sid/icd-10-cm",
            "code": "W01.0XXA"
          } ]
        },
        "onAdmission": {
          "coding": [ {
            "system": "https://www.cms.gov/Medicare/Medicare-Fee-for-Service-Payment/HospitalAcqCond/Coding",
            "code": "N"
          } ]
        }
      } ],
      "insurance": [ {
        "sequence": 1,
        "focal": true,
        "coverage": {
          "reference": "Coverage/be788bb6-6c8f-4c23-8fcf-f9046368846b"
        }
      } ],
      "item": [ {
        "sequence": 1,
        "diagnosisSequence": [ 1, 2 ],
        "productOrService": {
          "coding": [ {
            "system": "http://terminology.hl7.org/CodeSystem/ex-USCLS",
            "code": "1101"
          } ]
        },
        "encounter": [ {
          "reference": "Encounter/DENEXPass-Enc1FallPOAEnc2FallNPOAAndInjuryNPOA-2"
        } ]
      } ]
    },
    "request": {
      "method": "PUT",
      "url": "Claim/0a8a84c6-97b2-43c3-b885-1b5bd576933d"
    }
  }, {
    "fullUrl": "https://madie.cms.gov/Claim/e8b03aaa-cddd-41ec-bf15-e2c40d61d836",
    "resource": {
      "resourceType": "Claim",
      "id": "e8b03aaa-cddd-41ec-bf15-e2c40d61d836",
      "meta": {
        "profile": [ "http://hl7.org/fhir/us/qicore/StructureDefinition/qicore-claim" ]
      },
      "status": "active",
      "type": {
        "coding": [ {
          "system": "http://terminology.hl7.org/CodeSystem/claim-type",
          "code": "professional",
          "display": "Professional"
        } ]
      },
      "use": "claim",
      "patient": {
        "reference": "Patient/404570c9-b21f-4fa2-be5d-6d02c910fea6"
      },
      "created": "2026-11-12",
      "provider": {
        "reference": "Practitioner/8c3745b7-74f0-47ef-8472-85891796b2a7"
      },
      "priority": {
        "coding": [ {
          "system": "http://terminology.hl7.org/CodeSystem/processpriority",
          "code": "normal"
        } ]
      },
      "diagnosis": [ {
        "sequence": 1,
        "diagnosisCodeableConcept": {
          "coding": [ {
            "system": "http://hl7.org/fhir/sid/icd-10-cm",
            "code": "S01.121A"
          } ]
        },
        "onAdmission": {
          "coding": [ {
            "system": "https://www.cms.gov/Medicare/Medicare-Fee-for-Service-Payment/HospitalAcqCond/Coding",
            "code": "N"
          } ]
        }
      } ],
      "insurance": [ {
        "sequence": 1,
        "focal": true,
        "coverage": {
          "reference": "Coverage/be788bb6-6c8f-4c23-8fcf-f9046368846b"
        }
      } ],
      "item": [ {
        "sequence": 1,
        "diagnosisSequence": [ 1, 2 ],
        "productOrService": {
          "coding": [ {
            "system": "http://terminology.hl7.org/CodeSystem/ex-USCLS",
            "code": "1101"
          } ]
        },
        "encounter": [ {
          "reference": "Encounter/DENEXPass-Enc1FallPOAEnc2FallNPOAAndInjuryNPOA-2"
        } ]
      } ]
    },
    "request": {
      "method": "PUT",
      "url": "Claim/e8b03aaa-cddd-41ec-bf15-e2c40d61d836"
    }
  }, {
    "fullUrl": "https://madie.cms.gov/Encounter/e29f455f-a34d-4122-ad01-51d317f75dd9",
    "resource": {
      "resourceType": "Encounter",
      "id": "e29f455f-a34d-4122-ad01-51d317f75dd9",
      "meta": {
        "profile": [ "http://hl7.org/fhir/us/qicore/StructureDefinition/qicore-encounter" ]
      },
      "status": "finished",
      "class": {
        "system": "http://terminology.hl7.org/CodeSystem/v3-ActCode",
        "code": "IMP",
        "display": "inpatient encounter"
      },
      "type": [ {
        "coding": [ {
          "system": "http://snomed.info/sct",
          "code": "183452005"
        } ]
      } ],
      "subject": {
        "reference": "Patient/404570c9-b21f-4fa2-be5d-6d02c910fea6"
      },
      "period": {
        "start": "2026-12-10T08:00:00.000+00:00",
        "end": "2026-12-14T08:15:00.000+00:00"
      },
      "diagnosis": [ {
        "extension": [ {
          "url": "http://hl7.org/fhir/us/qicore/StructureDefinition/qicore-encounter-diagnosisPresentOnAdmission",
          "valueCodeableConcept": {
            "coding": [ {
              "system": "https://www.cms.gov/Medicare/Medicare-Fee-for-Service-Payment/HospitalAcqCond/Coding",
              "code": "N"
            } ]
          }
        } ],
        "condition": {
          "reference": "Condition/90272701-0727-42f4-ae93-5eb0c293cb26"
        }
      }, {
        "extension": [ {
          "url": "http://hl7.org/fhir/us/qicore/StructureDefinition/qicore-encounter-diagnosisPresentOnAdmission",
          "valueCodeableConcept": {
            "coding": [ {
              "system": "https://www.cms.gov/Medicare/Medicare-Fee-for-Service-Payment/HospitalAcqCond/Coding",
              "code": "N"
            } ]
          }
        } ],
        "condition": {
          "reference": "Condition/0452ca52-3e8e-4afc-8fda-9b7fab06eb23"
        }
      } ]
    },
    "request": {
      "method": "PUT",
      "url": "Encounter/e29f455f-a34d-4122-ad01-51d317f75dd9"
    }
  }, {
    "fullUrl": "https://madie.cms.gov/Encounter/8dbdc015-90ec-4247-9b65-87610bd07483",
    "resource": {
      "resourceType": "Encounter",
      "id": "8dbdc015-90ec-4247-9b65-87610bd07483",
      "meta": {
        "profile": [ "http://hl7.org/fhir/us/qicore/StructureDefinition/qicore-encounter" ]
      },
      "status": "finished",
      "class": {
        "system": "http://terminology.hl7.org/CodeSystem/v3-ActCode",
        "code": "IMP",
        "display": "inpatient encounter"
      },
      "type": [ {
        "coding": [ {
          "system": "http://snomed.info/sct",
          "code": "183452005"
        } ]
      } ],
      "subject": {
        "reference": "Patient/404570c9-b21f-4fa2-be5d-6d02c910fea6"
      },
      "period": {
        "start": "2026-11-09T11:00:00.000+00:00",
        "end": "2026-11-12T08:15:00.000+00:00"
      },
      "diagnosis": [ {
        "extension": [ {
          "url": "http://hl7.org/fhir/us/qicore/StructureDefinition/qicore-encounter-diagnosisPresentOnAdmission",
          "valueCodeableConcept": {
            "coding": [ {
              "system": "https://www.cms.gov/Medicare/Medicare-Fee-for-Service-Payment/HospitalAcqCond/Coding",
              "code": "Y"
            } ]
          }
        } ],
        "condition": {
          "reference": "Condition/457a5f71-f56f-4999-876d-c2f656b01b5e"
        }
      } ]
    },
    "request": {
      "method": "PUT",
      "url": "Encounter/8dbdc015-90ec-4247-9b65-87610bd07483"
    }
  }, {
    "fullUrl": "https://madie.cms.gov/Encounter/7e231d2e-d8a9-4b3b-8a42-13791d84624c",
    "resource": {
      "resourceType": "Encounter",
      "id": "7e231d2e-d8a9-4b3b-8a42-13791d84624c",
      "meta": {
        "profile": [ "http://hl7.org/fhir/us/qicore/StructureDefinition/qicore-encounter" ]
      },
      "status": "finished",
      "class": {
        "system": "http://terminology.hl7.org/CodeSystem/v3-ActCode",
        "code": "IMP",
        "display": "inpatient encounter"
      },
      "type": [ {
        "coding": [ {
          "system": "http://snomed.info/sct",
          "code": "4525004"
        } ]
      } ],
      "subject": {
        "reference": "Patient/404570c9-b21f-4fa2-be5d-6d02c910fea6"
      },
      "period": {
        "start": "2026-11-09T08:00:00.000+00:00",
        "end": "2026-11-09T10:15:00.000+00:00"
      }
    },
    "request": {
      "method": "PUT",
      "url": "Encounter/7e231d2e-d8a9-4b3b-8a42-13791d84624c"
    }
  }, {
    "fullUrl": "https://madie.cms.gov/Condition/0452ca52-3e8e-4afc-8fda-9b7fab06eb23",
    "resource": {
      "resourceType": "Condition",
      "id": "0452ca52-3e8e-4afc-8fda-9b7fab06eb23",
      "meta": {
        "profile": [ "http://hl7.org/fhir/us/qicore/StructureDefinition/qicore-condition" ]
      },
      "clinicalStatus": {
        "coding": [ {
          "system": "http://terminology.hl7.org/CodeSystem/condition-clinical",
          "code": "active"
        } ]
      },
      "verificationStatus": {
        "coding": [ {
          "system": "http://terminology.hl7.org/CodeSystem/condition-ver-status",
          "code": "confirmed"
        } ]
      },
      "category": [ {
        "coding": [ {
          "system": "http://terminology.hl7.org/CodeSystem/condition-category",
          "code": "encounter-diagnosis",
          "display": "Encounter Diagnosis"
        } ]
      } ],
      "code": {
        "coding": [ {
          "system": "http://hl7.org/fhir/sid/icd-10-cm",
          "code": "S01.121A"
        } ]
      },
      "subject": {
        "reference": "Patient/404570c9-b21f-4fa2-be5d-6d02c910fea6"
      },
      "encounter": {
        "reference": "Encounter/e29f455f-a34d-4122-ad01-51d317f75dd9"
      }
    },
    "request": {
      "method": "PUT",
      "url": "Condition/0452ca52-3e8e-4afc-8fda-9b7fab06eb23"
    }
  }, {
    "fullUrl": "https://madie.cms.gov/Condition/90272701-0727-42f4-ae93-5eb0c293cb26",
    "resource": {
      "resourceType": "Condition",
      "id": "90272701-0727-42f4-ae93-5eb0c293cb26",
      "meta": {
        "profile": [ "http://hl7.org/fhir/us/qicore/StructureDefinition/qicore-condition" ]
      },
      "clinicalStatus": {
        "coding": [ {
          "system": "http://terminology.hl7.org/CodeSystem/condition-clinical",
          "code": "active"
        } ]
      },
      "verificationStatus": {
        "coding": [ {
          "system": "http://terminology.hl7.org/CodeSystem/condition-ver-status",
          "code": "confirmed"
        } ]
      },
      "category": [ {
        "coding": [ {
          "system": "http://terminology.hl7.org/CodeSystem/condition-category",
          "code": "encounter-diagnosis",
          "display": "Encounter Diagnosis"
        } ]
      } ],
      "code": {
        "coding": [ {
          "system": "http://hl7.org/fhir/sid/icd-10-cm",
          "code": "W01.0XXA"
        } ]
      },
      "subject": {
        "reference": "Patient/404570c9-b21f-4fa2-be5d-6d02c910fea6"
      },
      "encounter": {
        "reference": "Encounter/e29f455f-a34d-4122-ad01-51d317f75dd9"
      }
    },
    "request": {
      "method": "PUT",
      "url": "Condition/90272701-0727-42f4-ae93-5eb0c293cb26"
    }
  }, {
    "fullUrl": "https://madie.cms.gov/Condition/457a5f71-f56f-4999-876d-c2f656b01b5e",
    "resource": {
      "resourceType": "Condition",
      "id": "457a5f71-f56f-4999-876d-c2f656b01b5e",
      "meta": {
        "profile": [ "http://hl7.org/fhir/us/qicore/StructureDefinition/qicore-condition" ]
      },
      "clinicalStatus": {
        "coding": [ {
          "system": "http://terminology.hl7.org/CodeSystem/condition-clinical",
          "code": "active"
        } ]
      },
      "verificationStatus": {
        "coding": [ {
          "system": "http://terminology.hl7.org/CodeSystem/condition-ver-status",
          "code": "confirmed"
        } ]
      },
      "category": [ {
        "coding": [ {
          "system": "http://terminology.hl7.org/CodeSystem/condition-category",
          "code": "encounter-diagnosis",
          "display": "Encounter Diagnosis"
        } ]
      } ],
      "code": {
        "coding": [ {
          "system": "http://hl7.org/fhir/sid/icd-10-cm",
          "code": "W01.0XXA"
        } ]
      },
      "subject": {
        "reference": "Patient/404570c9-b21f-4fa2-be5d-6d02c910fea6"
      },
      "encounter": {
        "reference": "Encounter/8dbdc015-90ec-4247-9b65-87610bd07483"
      }
    },
    "request": {
      "method": "PUT",
      "url": "Condition/457a5f71-f56f-4999-876d-c2f656b01b5e"
    }
  }, {
    "fullUrl": "https://madie.cms.gov/Patient/404570c9-b21f-4fa2-be5d-6d02c910fea6",
    "resource": {
      "resourceType": "Patient",
      "id": "404570c9-b21f-4fa2-be5d-6d02c910fea6",
      "meta": {
        "profile": [ "http://hl7.org/fhir/us/qicore/StructureDefinition/qicore-patient" ]
      },
      "extension": [ {
        "url": "http://hl7.org/fhir/us/core/StructureDefinition/us-core-race",
        "extension": [ {
          "url": "ombCategory",
          "valueCoding": {
            "system": "urn:oid:2.16.840.1.113883.6.238",
            "code": "2054-5",
            "display": "Black or African American",
            "userSelected": true
          }
        }, {
          "url": "text",
          "valueString": "Black or African American"
        } ]
      }, {
        "url": "http://hl7.org/fhir/us/core/StructureDefinition/us-core-ethnicity",
        "extension": [ {
          "url": "ombCategory",
          "valueCoding": {
            "system": "urn:oid:2.16.840.1.113883.6.238",
            "code": "2186-5",
            "display": "Not Hispanic or Latino",
            "userSelected": true
          }
        }, {
          "url": "text",
          "valueString": "Not Hispanic or Latino"
        } ]
      } ],
      "identifier": [ {
        "type": {
          "coding": [ {
            "system": "http://terminology.hl7.org/CodeSystem/v2-0203",
            "code": "MR"
          } ]
        },
        "system": "https://bonnie-fhir.healthit.gov/",
        "value": "61152a3b98086b7a79cbd7c1"
      } ],
      "active": true,
      "name": [ {
        "use": "usual",
        "family": "DENEXPass",
        "given": [ "Enc1FallPOAEnc2FallNPOAAndInjuryNPOA" ]
      } ],
      "gender": "male",
      "birthDate": "1992-11-10"
    },
    "request": {
      "method": "PUT",
      "url": "Patient/404570c9-b21f-4fa2-be5d-6d02c910fea6"
    }
  }, {
    "fullUrl": "https://madie.cms.gov/Practitioner/8c3745b7-74f0-47ef-8472-85891796b2a7",
    "resource": {
      "resourceType": "Practitioner",
      "id": "8c3745b7-74f0-47ef-8472-85891796b2a7",
      "meta": {
        "profile": [ "http://hl7.org/fhir/us/qicore/StructureDefinition/qicore-practitioner" ]
      },
      "identifier": [ {
        "system": "http://www.cms.gov/identifiers/pracitioners",
        "value": "P12345"
      } ],
      "name": [ {
        "use": "official",
        "family": "Smith",
        "given": [ "John" ]
      } ],
      "qualification": [ {
        "identifier": [ {
          "system": "http://hl7.org/fhir/sid/us-npi",
          "value": "1234567890"
        } ],
        "code": {
          "coding": [ {
            "system": "http://terminology.hl7.org/CodeSystem/v2-0203",
            "code": "MD",
            "display": "Medical License number"
          } ]
        }
      } ]
    },
    "request": {
      "method": "PUT",
      "url": "Practitioner/8c3745b7-74f0-47ef-8472-85891796b2a7"
    }
  }, {
    "fullUrl": "https://madie.cms.gov/Coverage/be788bb6-6c8f-4c23-8fcf-f9046368846b",
    "resource": {
      "resourceType": "Coverage",
      "id": "be788bb6-6c8f-4c23-8fcf-f9046368846b",
      "meta": {
        "profile": [ "http://hl7.org/fhir/us/qicore/StructureDefinition/qicore-coverage" ]
      },
      "identifier": [ {
        "use": "official",
        "type": {
          "coding": [ {
            "system": "http://terminology.hl7.org/CodeSystem/v2-0203",
            "code": "MB"
          } ]
        },
        "system": "http://insuranceNumber.org/",
        "value": "123456789"
      } ],
      "status": "active",
      "beneficiary": {
        "reference": "Patient/404570c9-b21f-4fa2-be5d-6d02c910fea6"
      },
      "relationship": {
        "coding": [ {
          "system": "http://terminology.hl7.org/CodeSystem/subscriber-relationship",
          "code": "self",
          "display": "Self"
        } ]
      },
      "payor": [ {
        "reference": "Organization/d7003030-936a-448f-be23-e876a87be956"
      } ]
    },
    "request": {
      "method": "PUT",
      "url": "Coverage/be788bb6-6c8f-4c23-8fcf-f9046368846b"
    }
  }, {
    "fullUrl": "https://madie.cms.gov/Organization/d7003030-936a-448f-be23-e876a87be956",
    "resource": {
      "resourceType": "Organization",
      "id": "d7003030-936a-448f-be23-e876a87be956",
      "meta": {
        "profile": [ "http://hl7.org/fhir/us/qicore/StructureDefinition/qicore-organization" ]
      },
      "identifier": [ {
        "system": "http://cms.gov/insurance-ids",
        "value": "AET12345"
      } ],
      "active": true,
      "type": [ {
        "coding": [ {
          "system": "http://terminology.hl7.org/CodeSystem/organization-type",
          "code": "prov",
          "display": "Healthcare Provider"
        } ]
      } ],
      "name": "Aetna Insurance",
      "telecom": [ {
        "system": "phone",
        "value": "+1-800-123-4567"
      } ],
      "address": [ {
        "line": [ "123 Main Street" ],
        "city": "Cityville",
        "state": "CA",
        "postalCode": "12345",
        "country": "USA"
      } ]
    },
    "request": {
      "method": "PUT",
      "url": "Organization/d7003030-936a-448f-be23-e876a87be956"
    }
  }, {
    "fullUrl": "https://madie.cms.gov/MeasureReport/897075cf-fb50-420c-819d-087f44c6a94b",
    "resource": {
      "resourceType": "MeasureReport",
      "id": "897075cf-fb50-420c-819d-087f44c6a94b",
      "meta": {
        "profile": [ "http://hl7.org/fhir/us/cqfmeasures/StructureDefinition/test-case-cqfm" ]
      },
      "contained": [ {
        "resourceType": "Parameters",
        "id": "c9f1635e-0543-4af4-8175-f7ba671ad773-parameters",
        "parameter": [ {
          "name": "subject",
          "valueString": "404570c9-b21f-4fa2-be5d-6d02c910fea6"
        } ]
      } ],
      "extension": [ {
        "url": "http://hl7.org/fhir/StructureDefinition/cqf-inputParameters",
        "valueReference": {
          "reference": "#c9f1635e-0543-4af4-8175-f7ba671ad773-parameters"
        }
      }, {
        "url": "http://hl7.org/fhir/us/cqfmeasures/StructureDefinition/cqfm-testCaseDescription",
        "valueMarkdown": "Enc 1: Fall POA = Y. Meets denom exclusion.\nEnc: 2 Fall POA = N and injury POA = N. Meets numerator."
      } ],
      "modifierExtension": [ {
        "url": "http://hl7.org/fhir/us/cqfmeasures/StructureDefinition/cqfm-isTestCase",
        "valueBoolean": true
      } ],
      "status": "complete",
      "type": "individual",
      "measure": "https://madie.cms.gov/Measure/CMS1017FHIRHHFI",
      "period": {
        "start": "2026-01-01",
        "end": "2026-12-31"
      },
      "group": [ {
        "id": "Group_1",
        "population": [ {
          "id": "InitialPopulation_1",
          "code": {
            "coding": [ {
              "system": "http://terminology.hl7.org/CodeSystem/measure-population",
              "code": "initial-population",
              "display": "Initial Population"
            } ]
          },
          "count": 2
        }, {
          "id": "Denominator_1",
          "code": {
            "coding": [ {
              "system": "http://terminology.hl7.org/CodeSystem/measure-population",
              "code": "denominator",
              "display": "Denominator"
            } ]
          },
          "count": 2
        }, {
          "id": "DenominatorExclusion_1",
          "code": {
            "coding": [ {
              "system": "http://terminology.hl7.org/CodeSystem/measure-population",
              "code": "denominator-exclusion",
              "display": "Denominator Exclusion"
            } ]
          },
          "count": 1
        }, {
          "id": "Numerator_1",
          "code": {
            "coding": [ {
              "system": "http://terminology.hl7.org/CodeSystem/measure-population",
              "code": "numerator",
              "display": "Numerator"
            } ]
          },
          "count": 1
        }, {
          "id": "NumeratorExclusion_1",
          "code": {
            "coding": [ {
              "system": "http://terminology.hl7.org/CodeSystem/measure-population",
              "code": "numerator-exclusion",
              "display": "Numerator Exclusion"
            } ]
          },
          "count": 1
        }, {
          "id": "MeasureObservation_1_1_1",
          "code": {
            "coding": [ {
              "system": "http://terminology.hl7.org/CodeSystem/measure-population",
              "code": "measure-observation",
              "display": "Measure Observation"
            } ]
          },
          "count": 4
        } ],
        "measureScore": {
          "value": 0.0
        }
      } ],
      "evaluatedResource": [ {
        "reference": "Claim/12a3fc02-ffbd-4cf9-9ad1-e2a7b16ffd08"
      }, {
        "reference": "Claim/0a8a84c6-97b2-43c3-b885-1b5bd576933d"
      }, {
        "reference": "Claim/e8b03aaa-cddd-41ec-bf15-e2c40d61d836"
      }, {
        "reference": "Encounter/e29f455f-a34d-4122-ad01-51d317f75dd9"
      }, {
        "reference": "Encounter/8dbdc015-90ec-4247-9b65-87610bd07483"
      }, {
        "reference": "Encounter/7e231d2e-d8a9-4b3b-8a42-13791d84624c"
      }, {
        "reference": "Condition/0452ca52-3e8e-4afc-8fda-9b7fab06eb23"
      }, {
        "reference": "Condition/90272701-0727-42f4-ae93-5eb0c293cb26"
      }, {
        "reference": "Condition/457a5f71-f56f-4999-876d-c2f656b01b5e"
      }, {
        "reference": "Patient/404570c9-b21f-4fa2-be5d-6d02c910fea6"
      }, {
        "reference": "Practitioner/8c3745b7-74f0-47ef-8472-85891796b2a7"
      }, {
        "reference": "Coverage/be788bb6-6c8f-4c23-8fcf-f9046368846b"
      }, {
        "reference": "Organization/d7003030-936a-448f-be23-e876a87be956"
      } ]
    },
    "request": {
      "method": "PUT",
      "url": "MeasureReport/897075cf-fb50-420c-819d-087f44c6a94b"
    }
  } ]
}