{
  "resourceType": "Bundle",
  "id": "NUMERFail-FallPOAModInjuryNPOA",
  "type": "transaction",
  "entry": [ {
    "fullUrl": "https://madie.cms.gov/Encounter/d2f327e3-8756-47b4-ac13-e4afcb03b09d",
    "resource": {
      "resourceType": "Encounter",
      "id": "d2f327e3-8756-47b4-ac13-e4afcb03b09d",
      "meta": {
        "profile": [ "http://hl7.org/fhir/us/qicore/StructureDefinition/qicore-encounter" ]
      },
      "status": "finished",
      "class": {
        "system": "http://terminology.hl7.org/CodeSystem/v3-ActCode",
        "code": "IMP",
        "display": "inpatient encounter"
      },
      "type": [ {
        "coding": [ {
          "system": "http://snomed.info/sct",
          "code": "183452005"
        } ]
      } ],
      "subject": {
        "reference": "Patient/21d7f7e1-3977-4227-8792-2e316460326f"
      },
      "period": {
        "start": "2026-11-09T11:00:00.000+00:00",
        "end": "2026-11-12T08:15:00.000+00:00"
      },
      "reasonReference": [ {
        "reference": "Condition/9f31a609-3d9d-4be9-a411-0f49ad1f7cc7"
      }, {
        "reference": "Condition/aa893706-3770-495d-8be3-d3989abf798b"
      } ]
    },
    "request": {
      "method": "PUT",
      "url": "Encounter/d2f327e3-8756-47b4-ac13-e4afcb03b09d"
    }
  }, {
    "fullUrl": "https://madie.cms.gov/Encounter/2f674ce6-42e3-4c67-89d4-1af2a53b381c",
    "resource": {
      "resourceType": "Encounter",
      "id": "2f674ce6-42e3-4c67-89d4-1af2a53b381c",
      "meta": {
        "profile": [ "http://hl7.org/fhir/us/qicore/StructureDefinition/qicore-encounter" ]
      },
      "status": "finished",
      "class": {
        "system": "http://terminology.hl7.org/CodeSystem/v3-ActCode",
        "code": "IMP",
        "display": "inpatient encounter"
      },
      "type": [ {
        "coding": [ {
          "system": "http://snomed.info/sct",
          "code": "4525004"
        } ]
      } ],
      "subject": {
        "reference": "Patient/21d7f7e1-3977-4227-8792-2e316460326f"
      },
      "period": {
        "start": "2026-11-09T08:00:00.000+00:00",
        "end": "2026-11-09T10:15:00.000+00:00"
      }
    },
    "request": {
      "method": "PUT",
      "url": "Encounter/2f674ce6-42e3-4c67-89d4-1af2a53b381c"
    }
  }, {
    "fullUrl": "https://madie.cms.gov/Condition/aa893706-3770-495d-8be3-d3989abf798b",
    "resource": {
      "resourceType": "Condition",
      "id": "aa893706-3770-495d-8be3-d3989abf798b",
      "meta": {
        "profile": [ "http://hl7.org/fhir/us/qicore/StructureDefinition/qicore-condition" ]
      },
      "clinicalStatus": {
        "coding": [ {
          "system": "http://terminology.hl7.org/CodeSystem/condition-clinical",
          "code": "active"
        } ]
      },
      "verificationStatus": {
        "coding": [ {
          "system": "http://terminology.hl7.org/CodeSystem/condition-ver-status",
          "code": "confirmed"
        } ]
      },
      "category": [ {
        "coding": [ {
          "system": "http://terminology.hl7.org/CodeSystem/condition-category",
          "code": "encounter-diagnosis",
          "display": "Encounter Diagnosis"
        } ]
      } ],
      "code": {
        "coding": [ {
          "system": "http://snomed.info/sct",
          "code": "56307009"
        } ]
      },
      "subject": {
        "reference": "Patient/21d7f7e1-3977-4227-8792-2e316460326f"
      },
      "encounter": {
        "reference": "Encounter/d2f327e3-8756-47b4-ac13-e4afcb03b09d"
      }
    },
    "request": {
      "method": "PUT",
      "url": "Condition/aa893706-3770-495d-8be3-d3989abf798b"
    }
  }, {
    "fullUrl": "https://madie.cms.gov/Condition/9f31a609-3d9d-4be9-a411-0f49ad1f7cc7",
    "resource": {
      "resourceType": "Condition",
      "id": "9f31a609-3d9d-4be9-a411-0f49ad1f7cc7",
      "meta": {
        "profile": [ "http://hl7.org/fhir/us/qicore/StructureDefinition/qicore-condition" ]
      },
      "clinicalStatus": {
        "coding": [ {
          "system": "http://terminology.hl7.org/CodeSystem/condition-clinical",
          "code": "active"
        } ]
      },
      "verificationStatus": {
        "coding": [ {
          "system": "http://terminology.hl7.org/CodeSystem/condition-ver-status",
          "code": "confirmed"
        } ]
      },
      "category": [ {
        "coding": [ {
          "system": "http://terminology.hl7.org/CodeSystem/condition-category",
          "code": "encounter-diagnosis",
          "display": "Encounter Diagnosis"
        } ]
      } ],
      "code": {
        "coding": [ {
          "system": "http://hl7.org/fhir/sid/icd-10-cm",
          "code": "W08.XXXA"
        } ]
      },
      "subject": {
        "reference": "Patient/21d7f7e1-3977-4227-8792-2e316460326f"
      },
      "encounter": {
        "reference": "Encounter/d2f327e3-8756-47b4-ac13-e4afcb03b09d"
      }
    },
    "request": {
      "method": "PUT",
      "url": "Condition/9f31a609-3d9d-4be9-a411-0f49ad1f7cc7"
    }
  }, {
    "fullUrl": "https://madie.cms.gov/Patient/21d7f7e1-3977-4227-8792-2e316460326f",
    "resource": {
      "resourceType": "Patient",
      "id": "21d7f7e1-3977-4227-8792-2e316460326f",
      "meta": {
        "profile": [ "http://hl7.org/fhir/us/qicore/StructureDefinition/qicore-patient" ]
      },
      "extension": [ {
        "url": "http://hl7.org/fhir/us/core/StructureDefinition/us-core-race",
        "extension": [ {
          "url": "ombCategory",
          "valueCoding": {
            "system": "urn:oid:2.16.840.1.113883.6.238",
            "code": "2054-5",
            "display": "Black or African American",
            "userSelected": true
          }
        }, {
          "url": "text",
          "valueString": "Black or African American"
        } ]
      }, {
        "url": "http://hl7.org/fhir/us/core/StructureDefinition/us-core-ethnicity",
        "extension": [ {
          "url": "ombCategory",
          "valueCoding": {
            "system": "urn:oid:2.16.840.1.113883.6.238",
            "code": "2186-5",
            "display": "Not Hispanic or Latino",
            "userSelected": true
          }
        }, {
          "url": "text",
          "valueString": "Not Hispanic or Latino"
        } ]
      } ],
      "identifier": [ {
        "type": {
          "coding": [ {
            "system": "http://terminology.hl7.org/CodeSystem/v2-0203",
            "code": "MR"
          } ]
        },
        "system": "https://bonnie-fhir.healthit.gov/",
        "value": "61152a3b98086b7a79cbd7c1"
      } ],
      "active": true,
      "name": [ {
        "use": "usual",
        "family": "NUMERFail",
        "given": [ "FallPOAModInjuryNPOA" ]
      } ],
      "gender": "male",
      "birthDate": "1964-12-11"
    },
    "request": {
      "method": "PUT",
      "url": "Patient/21d7f7e1-3977-4227-8792-2e316460326f"
    }
  }, {
    "fullUrl": "https://madie.cms.gov/Claim/14c35a52-2a7c-4320-9a4c-e0eaf910c713",
    "resource": {
      "resourceType": "Claim",
      "id": "14c35a52-2a7c-4320-9a4c-e0eaf910c713",
      "meta": {
        "profile": [ "http://hl7.org/fhir/us/qicore/StructureDefinition/qicore-claim" ]
      },
      "status": "active",
      "type": {
        "coding": [ {
          "system": "http://terminology.hl7.org/CodeSystem/claim-type",
          "code": "professional",
          "display": "Professional"
        } ]
      },
      "use": "claim",
      "patient": {
        "reference": "Patient/0dfafc1a-cf94-4ca1-becf-c1b843896810"
      },
      "created": "2026-11-12",
      "priority": {
        "coding": [ {
          "system": "http://terminology.hl7.org/CodeSystem/processpriority",
          "code": "normal"
        } ]
      },
      "diagnosis": [ {
        "sequence": 1,
        "diagnosisCodeableConcept": {
          "coding": [ {
            "system": "http://snomed.info/sct",
            "code": "14047009"
          } ]
        },
        "onAdmission": {
          "coding": [ {
            "system": "https://www.cms.gov/Medicare/Medicare-Fee-for-Service-Payment/HospitalAcqCond/Coding",
            "code": "Y"
          } ]
        }
      } ],
      "item": [ {
        "sequence": 1,
        "diagnosisSequence": [ 1, 2 ],
        "encounter": [ {
          "reference": "Encounter/d2f327e3-8756-47b4-ac13-e4afcb03b09d"
        } ]
      } ]
    },
    "request": {
      "method": "PUT",
      "url": "Claim/14c35a52-2a7c-4320-9a4c-e0eaf910c713"
    }
  }, {
    "fullUrl": "https://madie.cms.gov/Claim/0fee19d7-a326-43b8-8ffa-aa6e03a991c1",
    "resource": {
      "resourceType": "Claim",
      "id": "0fee19d7-a326-43b8-8ffa-aa6e03a991c1",
      "meta": {
        "profile": [ "http://hl7.org/fhir/us/qicore/StructureDefinition/qicore-claim" ]
      },
      "status": "active",
      "type": {
        "coding": [ {
          "system": "http://terminology.hl7.org/CodeSystem/claim-type",
          "code": "professional",
          "display": "Professional"
        } ]
      },
      "use": "claim",
      "patient": {
        "reference": "Patient/972573e8-bd51-4b77-a954-39babec1a055"
      },
      "created": "2026-11-12",
      "priority": {
        "coding": [ {
          "system": "http://terminology.hl7.org/CodeSystem/processpriority",
          "code": "normal"
        } ]
      },
      "diagnosis": [ {
        "sequence": 1,
        "diagnosisCodeableConcept": {
          "coding": [ {
            "system": "http://hl7.org/fhir/sid/icd-10-cm",
            "code": "S01.00XA"
          } ]
        },
        "onAdmission": {
          "coding": [ {
            "system": "https://www.cms.gov/Medicare/Medicare-Fee-for-Service-Payment/HospitalAcqCond/Coding",
            "code": "N"
          } ]
        }
      } ],
      "item": [ {
        "sequence": 1,
        "diagnosisSequence": [ 1, 2 ],
        "encounter": [ {
          "reference": "Encounter/d2f327e3-8756-47b4-ac13-e4afcb03b09d"
        } ]
      } ]
    },
    "request": {
      "method": "PUT",
      "url": "Claim/0fee19d7-a326-43b8-8ffa-aa6e03a991c1"
    }
  }, {
    "fullUrl": "https://madie.cms.gov/AdverseEvent/d6e9e3ff-f725-4f02-b7f0-c9e973898565",
    "resource": {
      "resourceType": "AdverseEvent",
      "id": "d6e9e3ff-f725-4f02-b7f0-c9e973898565",
      "meta": {
        "profile": [ "http://hl7.org/fhir/us/qicore/StructureDefinition/qicore-adverseevent" ]
      },
      "actuality": "actual",
      "event": {
        "coding": [ {
          "system": "http://snomed.info/sct",
          "code": "14047009"
        } ]
      },
      "subject": {
        "reference": "Patient/0dfafc1a-cf94-4ca1-becf-c1b843896810"
      },
      "date": "2026-11-11T08:00:00.000+00:00"
    },
    "request": {
      "method": "PUT",
      "url": "AdverseEvent/d6e9e3ff-f725-4f02-b7f0-c9e973898565"
    }
  }, {
    "fullUrl": "https://madie.cms.gov/MeasureReport/54b8e838-d017-443b-959d-0f003fd1d2b1",
    "resource": {
      "resourceType": "MeasureReport",
      "id": "54b8e838-d017-443b-959d-0f003fd1d2b1",
      "meta": {
        "profile": [ "http://hl7.org/fhir/us/cqfmeasures/StructureDefinition/test-case-cqfm" ]
      },
      "contained": [ {
        "resourceType": "Parameters",
        "id": "ab5d6aaa-6619-4aae-ba24-48338655ddea-parameters",
        "parameter": [ {
          "name": "subject",
          "valueString": "21d7f7e1-3977-4227-8792-2e316460326f"
        } ]
      } ],
      "extension": [ {
        "url": "http://hl7.org/fhir/StructureDefinition/cqf-inputParameters",
        "valueReference": {
          "reference": "#ab5d6aaa-6619-4aae-ba24-48338655ddea-parameters"
        }
      }, {
        "url": "http://hl7.org/fhir/us/cqfmeasures/StructureDefinition/cqfm-testCaseDescription",
        "valueMarkdown": "Encounter diagnoses include: Fall POA and Moderate injury NPOA. Fall POA meets fails to meet Numerator"
      } ],
      "modifierExtension": [ {
        "url": "http://hl7.org/fhir/us/cqfmeasures/StructureDefinition/cqfm-isTestCase",
        "valueBoolean": true
      } ],
      "status": "complete",
      "type": "individual",
      "measure": "https://madie.cms.gov/Measure/CMS1017FHIRHHFI",
      "period": {
        "start": "2026-01-01",
        "end": "2026-12-31"
      },
      "group": [ {
        "id": "Group_1",
        "population": [ {
          "id": "InitialPopulation_1",
          "code": {
            "coding": [ {
              "system": "http://terminology.hl7.org/CodeSystem/measure-population",
              "code": "initial-population",
              "display": "Initial Population"
            } ]
          },
          "count": 1
        }, {
          "id": "Denominator_1",
          "code": {
            "coding": [ {
              "system": "http://terminology.hl7.org/CodeSystem/measure-population",
              "code": "denominator",
              "display": "Denominator"
            } ]
          },
          "count": 1
        }, {
          "id": "DenominatorExclusion_1",
          "code": {
            "coding": [ {
              "system": "http://terminology.hl7.org/CodeSystem/measure-population",
              "code": "denominator-exclusion",
              "display": "Denominator Exclusion"
            } ]
          },
          "count": 1
        }, {
          "id": "Numerator_1",
          "code": {
            "coding": [ {
              "system": "http://terminology.hl7.org/CodeSystem/measure-population",
              "code": "numerator",
              "display": "Numerator"
            } ]
          },
          "count": 0
        }, {
          "id": "NumeratorExclusion_1",
          "code": {
            "coding": [ {
              "system": "http://terminology.hl7.org/CodeSystem/measure-population",
              "code": "numerator-exclusion",
              "display": "Numerator Exclusion"
            } ]
          },
          "count": 0
        } ],
        "measureScore": {
          "value": 0.0
        }
      } ],
      "evaluatedResource": [ {
        "reference": "Encounter/d2f327e3-8756-47b4-ac13-e4afcb03b09d"
      }, {
        "reference": "Encounter/2f674ce6-42e3-4c67-89d4-1af2a53b381c"
      }, {
        "reference": "Condition/aa893706-3770-495d-8be3-d3989abf798b"
      }, {
        "reference": "Condition/9f31a609-3d9d-4be9-a411-0f49ad1f7cc7"
      }, {
        "reference": "Patient/21d7f7e1-3977-4227-8792-2e316460326f"
      }, {
        "reference": "Claim/14c35a52-2a7c-4320-9a4c-e0eaf910c713"
      }, {
        "reference": "Claim/0fee19d7-a326-43b8-8ffa-aa6e03a991c1"
      }, {
        "reference": "AdverseEvent/d6e9e3ff-f725-4f02-b7f0-c9e973898565"
      } ]
    },
    "request": {
      "method": "PUT",
      "url": "MeasureReport/54b8e838-d017-443b-959d-0f003fd1d2b1"
    }
  } ]
}